timestamp,accel_x (m/s2),accel_y (m/s2),accel_z (m/s2)
0.00378478021917772,0.40222587890625,9.86411083984375,-1.29286889648437
0.00756956043835544,0.44053310546875,9.86411083984375,-1.302445703125
0.0113543406575332,0.454898315429687,9.87847604980469,-1.25935007324219
0.0190816829969549,0.44053310546875,9.87368764648437,-1.23061965332031
0.0268090253363766,0.416591088867187,9.86411083984375,-1.31681091308594
0.0345363676757984,0.445321508789062,9.87368764648437,-1.26892687988281
0.0422715024414136,0.45968671875,9.87847604980469,-1.29765729980469
0.0500066372070288,0.44053310546875,9.88805285644531,-1.27371528320312
0.0577417719726441,0.483628735351562,9.82580361328125,-1.30723410644531
0.065484005154057,0.507570751953125,9.82580361328125,-1.302445703125
0.0732262383354699,0.512359155273437,9.82580361328125,-1.33117612304687
0.0809684715168828,0.493205541992187,9.84016882324219,-1.29286889648437
0.0887145635307623,0.4979939453125,9.83538041992187,-1.32638771972656
0.0964606555446418,0.488417138671875,9.86889924316406,-1.24977326660156
0.104206747558521,0.488417138671875,9.84974562988281,-1.24019645996094
0.111954498318084,0.502782348632812,9.82580361328125,-1.24498486328125
0.119702249077648,0.512359155273437,9.81143840332031,-1.32159931640625
0.127449999837211,0.521935961914062,9.8449572265625,-1.27371528320312
0.135199494411855,0.45968671875,9.83538041992187,-1.24019645996094
0.142948988986499,0.47884033203125,9.83538041992187,-1.25935007324219
0.150698483561143,0.493205541992187,9.83059201660156,-1.28808049316406
0.162324260525111,0.474051928710937,9.85932243652344,-1.24019645996094
0.173950037489078,0.464475122070312,9.82101520996094,-1.29286889648437
0.185575814453045,0.47884033203125,9.81622680664062,-1.24977326660156
0.208933924045065,0.4979939453125,9.82580361328125,-1.30723410644531
0.232292033637085,0.47884033203125,9.86411083984375,-1.3407529296875
0.255650143229104,0.464475122070312,9.85453403320312,-1.28808049316406
0.263457698567663,0.40222587890625,9.83059201660156,-1.25935007324219
0.271265253906222,0.464475122070312,9.82580361328125,-1.28808049316406
0.279072809244781,0.430956298828125,9.82580361328125,-1.32159931640625
0.2868843907335,0.450109912109375,9.83538041992187,-1.27850368652344
0.294695972222219,0.435744702148437,9.82580361328125,-1.21146604003906
0.302507553710939,0.430956298828125,9.83538041992187,-1.23061965332031
0.310322233398438,0.445321508789062,9.86889924316406,-1.20667763671875
0.318136913085937,0.445321508789062,9.87847604980469,-1.25456166992187
0.325951592773436,0.469263525390625,9.86411083984375,-1.24019645996094
0.333769107096373,0.474051928710937,9.86411083984375,-1.27371528320312
0.34158662141931,0.445321508789062,9.89762966308594,-1.27371528320312
0.349404135742247,0.445321508789062,9.84974562988281,-1.31681091308594
0.357287159288262,0.483628735351562,9.94551369628906,-1.27371528320312
0.365170182834277,0.4979939453125,9.88805285644531,-1.25935007324219
0.373053206380291,0.464475122070312,9.88805285644531,-1.31202250976562
0.381016565538289,0.531512768554687,9.8449572265625,-1.29765729980469
0.388979924696287,0.483628735351562,9.91199487304687,-1.32159931640625
0.396943283854284,0.483628735351562,9.89762966308594,-1.26892687988281
0.40491418457043,0.44053310546875,9.89762966308594,-1.33596452636719
0.412885085286575,0.483628735351562,9.9215716796875,-1.25456166992187
0.420855986002721,0.502782348632812,9.87847604980469,-1.24977326660156
0.428829737955842,0.47884033203125,9.89284125976562,-1.302445703125
0.436803489908963,0.4979939453125,9.883264453125,-1.302445703125
0.444777241862084,0.507570751953125,9.91678327636719,-1.30723410644531
0.452753425998367,0.4979939453125,9.91199487304687,-1.28808049316406
0.460729610134649,0.531512768554687,9.89762966308594,-1.26892687988281
0.468705794270932,0.531512768554687,9.90720646972656,-1.23540805664062
0.476685667968847,0.469263525390625,9.85453403320312,-1.28808049316406
0.484665541666762,0.474051928710937,9.89284125976562,-1.29286889648437
0.492645415364677,0.502782348632812,9.90241806640625,-1.31202250976562
0.500627431532204,0.512359155273437,9.90720646972656,-1.24977326660156
0.508609447699731,0.502782348632812,9.92636008300781,-1.24019645996094
0.516591463867258,0.4979939453125,9.89762966308594,-1.26892687988281
0.524575083550417,0.454898315429687,9.87847604980469,-1.28808049316406
0.532558703233576,0.488417138671875,9.87368764648437,-1.27850368652344
0.540542322916735,0.536301171875,9.86411083984375,-1.23540805664062
0.556592892523952,0.407014282226562,9.8449572265625,-1.28329208984375
0.572643462131168,0.464475122070312,9.84974562988281,-1.26892687988281
0.588694031738385,0.430956298828125,9.89762966308594,-1.28808049316406
0.59673629378265,0.416591088867187,9.87847604980469,-1.23540805664062
0.604778555826916,0.430956298828125,9.89762966308594,-1.25935007324219
0.612820817871182,0.411802685546875,9.86411083984375,-1.22104284667969
0.620864914876411,0.435744702148437,9.86411083984375,-1.25456166992187
0.628909011881641,0.416591088867187,9.89762966308594,-1.28808049316406
0.636953108886871,0.416591088867187,9.88805285644531,-1.24019645996094
0.644999114529223,0.430956298828125,9.89284125976562,-1.302445703125
0.653045120171574,0.40222587890625,9.93114848632812,-1.26892687988281
0.661091125813925,0.4213794921875,9.883264453125,-1.25456166992187
0.669139013509247,0.45968671875,9.91199487304687,-1.2641384765625
0.677186901204569,0.454898315429687,9.87847604980469,-1.26892687988281
0.685234788899891,0.44053310546875,9.87847604980469,-1.2641384765625
0.693354187337396,0.416591088867187,9.85932243652344,-1.25456166992187
0.701473585774901,0.450109912109375,9.87847604980469,-1.26892687988281
0.709592984212406,0.45968671875,9.85453403320312,-1.28329208984375
0.717718403049219,0.416591088867187,9.85453403320312,-1.27850368652344
0.725843821886031,0.502782348632812,9.86889924316406,-1.23540805664062
0.733969240722843,0.464475122070312,9.87368764648437,-1.28808049316406
0.742100614203745,0.483628735351562,9.883264453125,-1.28808049316406
0.750231987684648,0.454898315429687,9.87368764648437,-1.28808049316406
0.75836336116555,0.464475122070312,9.87368764648437,-1.27850368652344
0.766502332628211,0.474051928710937,9.86889924316406,-1.25935007324219
0.774641304090873,0.454898315429687,9.86411083984375,-1.21146604003906
0.782780275553534,0.474051928710937,9.86889924316406,-1.22583125
0.790921011230637,0.488417138671875,9.82580361328125,-1.26892687988281
0.799061746907739,0.526724365234375,9.85932243652344,-1.21625444335937
0.807202482584842,0.512359155273437,9.86411083984375,-1.26892687988281
0.815396810058796,0.493205541992187,9.88805285644531,-1.24977326660156
0.823591137532749,0.474051928710937,9.85932243652344,-1.24498486328125
0.831785465006703,0.45968671875,9.86411083984375,-1.31681091308594
0.83998368896503,0.512359155273437,9.87368764648437,-1.27850368652344
0.848181912923356,0.512359155273437,9.89284125976562,-1.28808049316406
0.856380136881683,0.47884033203125,9.85453403320312,-1.302445703125
0.864582417155115,0.474051928710937,9.81622680664062,-1.29286889648437
0.872784697428547,0.469263525390625,9.85453403320312,-1.25935007324219
0.88098697770198,0.464475122070312,9.89762966308594,-1.21146604003906
0.889193139485826,0.464475122070312,9.85453403320312,-1.24977326660156
0.897399301269672,0.51714755859375,9.90720646972656,-1.31681091308594
0.905605463053519,0.483628735351562,9.86411083984375,-1.25456166992187
0.913813348795713,0.512359155273437,9.86411083984375,-1.17315881347656
0.922021234537908,0.47884033203125,9.87847604980469,-1.28808049316406
0.930229120280103,0.493205541992187,9.87368764648437,-1.24498486328125
0.938580615180266,0.507570751953125,9.84016882324219,-1.23061965332031
0.94693211008043,0.44053310546875,9.90241806640625,-1.24498486328125
0.955283604980593,0.450109912109375,9.87847604980469,-1.28808049316406
0.963638093912872,0.464475122070312,9.88805285644531,-1.25935007324219
0.971992582845151,0.493205541992187,9.86411083984375,-1.28329208984375
0.98034707177743,0.45968671875,9.84016882324219,-1.24019645996094
0.988703905002258,0.464475122070312,9.83538041992187,-1.27371528320312
0.997060738227087,0.450109912109375,9.89284125976562,-1.33596452636719
1.00541757145191,0.45968671875,9.89284125976562,-1.28329208984375
1.01377739100487,0.464475122070312,9.883264453125,-1.2641384765625
1.02213721055783,0.44053310546875,9.85453403320312,-1.25456166992187
1.03049703011078,0.454898315429687,9.84016882324219,-1.24498486328125
1.0388596193035,0.45968671875,9.87368764648437,-1.25456166992187
1.04722220849622,0.445321508789062,9.883264453125,-1.23540805664062
1.05558479768894,0.45968671875,9.85932243652344,-1.25456166992187
1.06395066628702,0.464475122070312,9.87847604980469,-1.24498486328125
1.07231653488511,0.454898315429687,9.86411083984375,-1.27850368652344
1.08068240348319,0.483628735351562,9.85453403320312,-1.28329208984375
1.08905017518458,0.488417138671875,9.87368764648437,-1.33596452636719
1.09741794688597,0.464475122070312,9.84974562988281,-1.24977326660156
1.10578571858736,0.493205541992187,9.87847604980469,-1.27371528320312
1.12681284328895,0.493205541992187,9.9215716796875,-1.24498486328125
1.14783996799054,0.483628735351562,9.883264453125,-1.28808049316406
1.16886709269212,0.493205541992187,9.86889924316406,-1.2641384765625
1.17729898971903,0.512359155273437,9.883264453125,-1.24977326660156
1.18573088674593,0.483628735351562,9.88805285644531,-1.302445703125
1.19416278377284,0.483628735351562,9.90720646972656,-1.26892687988281
1.20267289260533,0.474051928710937,9.90241806640625,-1.27371528320312
1.21118300143781,0.474051928710937,9.92636008300781,-1.302445703125
1.2196931102703,0.47884033203125,9.85932243652344,-1.21625444335937
1.22820846812621,0.47884033203125,9.86889924316406,-1.22104284667969
1.23672382598212,0.474051928710937,9.90720646972656,-1.28329208984375
1.24523918383804,0.450109912109375,9.88805285644531,-1.25935007324219
1.25375655341271,0.488417138671875,9.90241806640625,-1.19710083007812
1.26227392298738,0.521935961914062,9.89284125976562,-1.23540805664062
1.27079129256205,0.488417138671875,9.87847604980469,-1.25935007324219
1.27931055883809,0.474051928710937,9.85932243652344,-1.23540805664062
1.28782982511413,0.483628735351562,9.89284125976562,-1.24498486328125
1.29634909139017,0.47884033203125,9.883264453125,-1.23540805664062
1.30487027042664,0.488417138671875,9.87847604980469,-1.2641384765625
1.31339144946311,0.51714755859375,9.89762966308594,-1.22583125
1.32191262849958,0.488417138671875,9.8449572265625,-1.21625444335937
1.33043568069143,0.488417138671875,9.91678327636719,-1.20188923339844
1.33895873288328,0.464475122070312,9.89762966308594,-1.24498486328125
1.34748178507513,0.512359155273437,9.87368764648437,-1.27850368652344
1.35600667884683,0.488417138671875,9.82101520996094,-1.24019645996094
1.36453157261854,0.512359155273437,9.86411083984375,-1.23540805664062
1.37305646639024,0.493205541992187,9.85453403320312,-1.31681091308594
1.38592276877199,0.474051928710937,9.8449572265625,-1.24498486328125
1.39878907115374,0.454898315429687,9.83538041992187,-1.24977326660156
1.4116553735355,0.450109912109375,9.87368764648437,-1.22583125
1.42025097075771,0.488417138671875,9.84974562988281,-1.302445703125
1.42884656797992,0.469263525390625,9.87368764648437,-1.23540805664062
1.43744216520213,0.4979939453125,9.86411083984375,-1.22104284667969
1.44604069091827,0.445321508789062,9.90720646972656,-1.1875240234375
1.4546392166344,0.450109912109375,9.89762966308594,-1.20667763671875
1.46323774235054,0.47884033203125,9.91199487304687,-1.23061965332031
1.47183927056237,0.502782348632812,9.86889924316406,-1.25456166992187
1.48044079877419,0.502782348632812,9.85453403320312,-1.23540805664062
1.48904232698601,0.541089575195312,9.90241806640625,-1.23061965332031
1.497645733019,0.493205541992187,9.8449572265625,-1.18273562011719
1.50624913905199,0.512359155273437,9.8449572265625,-1.1875240234375
1.51485254508498,0.488417138671875,9.83059201660156,-1.19231242675781
1.52351628976813,0.512359155273437,9.85932243652344,-1.20667763671875
1.53218003445128,0.488417138671875,9.84974562988281,-1.25935007324219
1.54084377913443,0.488417138671875,9.85453403320312,-1.17794721679687
1.54958601459452,0.521935961914062,9.84974562988281,-1.21146604003906
1.55832825005461,0.483628735351562,9.84974562988281,-1.2641384765625
1.56707048551471,0.502782348632812,9.88805285644531,-1.26892687988281
1.57581580962494,0.493205541992187,9.84974562988281,-1.20667763671875
1.58456113373518,0.507570751953125,9.87368764648437,-1.22583125
1.59330645784542,0.488417138671875,9.87847604980469,-1.24498486328125
1.60205383696867,0.454898315429687,9.83538041992187,-1.20667763671875
1.61080121609192,0.469263525390625,9.84974562988281,-1.27371528320312
1.61954859521518,0.4213794921875,9.8449572265625,-1.23540805664062
1.62829787125683,0.464475122070312,9.83059201660156,-1.24498486328125
1.63704714729848,0.45968671875,9.82580361328125,-1.19231242675781
1.64579642334013,0.464475122070312,9.84974562988281,-1.28808049316406
1.65454794753718,0.493205541992187,9.87368764648437,-1.24498486328125
1.66329947173422,0.474051928710937,9.84016882324219,-1.22583125
1.67205099593127,0.469263525390625,9.84016882324219,-1.25456166992187
1.68080438004586,0.474051928710937,9.82580361328125,-1.23061965332031
1.68955776416044,0.45968671875,9.87847604980469,-1.24977326660156
1.69831114827502,0.450109912109375,9.92636008300781,-1.23061965332031
1.70706635432972,0.4979939453125,9.87368764648437,-1.15879360351562
1.71582156038441,0.454898315429687,9.85932243652344,-1.24498486328125
1.7245767664391,0.474051928710937,9.89762966308594,-1.21625444335937
1.7377911145565,0.44053310546875,9.883264453125,-1.25935007324219
1.7510054626739,0.488417138671875,9.86411083984375,-1.25456166992187
1.7642198107913,0.44053310546875,9.88805285644531,-1.24977326660156
1.77304447073055,0.45968671875,9.87847604980469,-1.29765729980469
1.7818691306698,0.521935961914062,9.84974562988281,-1.30723410644531
1.79069379060905,0.454898315429687,9.86411083984375,-1.21625444335937
1.79952071280959,0.44053310546875,9.84974562988281,-1.2641384765625
1.80834763501012,0.430956298828125,9.85932243652344,-1.25935007324219
1.81717455721065,0.45968671875,9.84974562988281,-1.19231242675781
1.82600338381654,0.44053310546875,9.84974562988281,-1.2641384765625
1.83483221042242,0.44053310546875,9.84974562988281,-1.21146604003906
1.84366103702831,0.445321508789062,9.84016882324219,-1.2641384765625
1.85249166322188,0.45968671875,9.80186159667969,-1.23540805664062
1.86132228941545,0.47884033203125,9.81143840332031,-1.24977326660156
1.87015291560903,0.430956298828125,9.86411083984375,-1.23540805664062
1.87898536287467,0.450109912109375,9.83538041992187,-1.19231242675781
1.88781781014031,0.45968671875,9.86889924316406,-1.23061965332031
1.89665025740595,0.445321508789062,9.86411083984375,-1.24019645996094
1.90555018242767,0.464475122070312,9.86889924316406,-1.24498486328125
1.91445010744938,0.464475122070312,9.883264453125,-1.22583125
1.92335003247109,0.483628735351562,9.85453403320312,-1.21625444335937
1.93225532196764,0.47884033203125,9.85932243652344,-1.19231242675781
1.94116061146419,0.483628735351562,9.91199487304687,-1.22583125
1.95006590096074,0.450109912109375,9.87368764648437,-1.23540805664062
1.95897365551804,0.488417138671875,9.883264453125,-1.25456166992187
1.96788141007534,0.44053310546875,9.87368764648437,-1.25935007324219
1.97678916463263,0.483628735351562,9.88805285644531,-1.26892687988281
1.98569884996249,0.47884033203125,9.86889924316406,-1.27850368652344
1.99460853529234,0.464475122070312,9.90241806640625,-1.21625444335937
2.0035182206222,0.445321508789062,9.89284125976562,-1.24977326660156
2.01242974731491,0.47884033203125,9.90241806640625,-1.21146604003906
2.02134127400763,0.47884033203125,9.8449572265625,-1.17794721679687
2.03025280070034,0.4979939453125,9.883264453125,-1.21146604003906
2.03922901511008,0.483628735351562,9.883264453125,-1.25935007324219
2.04820522951981,0.502782348632812,9.92636008300781,-1.24977326660156
2.05718144392955,0.493205541992187,9.89762966308594,-1.24498486328125
2.06616210517088,0.47884033203125,9.86889924316406,-1.16837041015625
2.07514276641221,0.488417138671875,9.86889924316406,-1.23061965332031
2.08412342765354,0.474051928710937,9.87847604980469,-1.21625444335937
2.09311232771864,0.488417138671875,9.89284125976562,-1.2641384765625
2.10210122778375,0.521935961914062,9.90241806640625,-1.19231242675781
2.11109012784885,0.521935961914062,9.87368764648437,-1.23540805664062
2.12014523299208,0.4979939453125,9.90720646972656,-1.22583125
2.1292003381353,0.469263525390625,9.87847604980469,-1.21625444335937
2.13825544327852,0.469263525390625,9.90241806640625,-1.1875240234375
2.14731673646431,0.502782348632812,9.85932243652344,-1.24977326660156
2.15637802965009,0.45968671875,9.87368764648437,-1.25456166992187
2.16543932283588,0.474051928710937,9.86411083984375,-1.30723410644531
2.17451918991486,0.469263525390625,9.89762966308594,-1.27850368652344
2.18359905699384,0.450109912109375,9.89284125976562,-1.24977326660156
2.19267892407282,0.445321508789062,9.91199487304687,-1.23061965332031
2.20176267797909,0.445321508789062,9.883264453125,-1.28808049316406
2.21084643188535,0.45968671875,9.91678327636719,-1.31202250976562
2.21993018579161,0.435744702148437,9.92636008300781,-1.25456166992187
2.2290174527187,0.493205541992187,9.86889924316406,-1.24498486328125
2.23810471964579,0.426167895507812,9.91199487304687,-1.24498486328125
2.24719198657289,0.450109912109375,9.89762966308594,-1.28329208984375
2.25628301207202,0.445321508789062,9.89762966308594,-1.19231242675781
2.26537403757116,0.430956298828125,9.89762966308594,-1.24498486328125
2.27446506307029,0.435744702148437,9.91678327636719,-1.22104284667969
2.2835973505052,0.464475122070312,9.89284125976562,-1.25935007324219
2.29272963794011,0.445321508789062,9.89284125976562,-1.22583125
2.30186192537502,0.435744702148437,9.90720646972656,-1.28329208984375
2.31099729939848,0.493205541992187,9.87847604980469,-1.25935007324219
2.32013267342194,0.45968671875,9.85453403320312,-1.25935007324219
2.3292680474454,0.464475122070312,9.84016882324219,-1.24498486328125
2.33840542548359,0.445321508789062,9.86411083984375,-1.25935007324219
2.34754280352178,0.47884033203125,9.85453403320312,-1.23061965332031
2.35668018155997,0.531512768554687,9.84974562988281,-1.23061965332031
2.36582153290546,0.536301171875,9.87368764648437,-1.19710083007812
2.37496288425096,0.507570751953125,9.83538041992187,-1.23540805664062
2.38410423559645,0.521935961914062,9.87847604980469,-1.22104284667969
2.39324749970234,0.474051928710937,9.83059201660156,-1.19231242675781
2.40239076380823,0.541089575195312,9.8449572265625,-1.24498486328125
2.41153402791412,0.512359155273437,9.80665,-1.16358200683594
2.42067910799223,0.4979939453125,9.85932243652344,-1.21625444335937
2.42982418807035,0.550666381835937,9.84974562988281,-1.26892687988281
2.43896926814847,0.521935961914062,9.81143840332031,-1.17794721679687
2.44818037361724,0.488417138671875,9.80665,-1.31681091308594
2.45739147908601,0.512359155273437,9.81622680664062,-1.20188923339844
2.46660258455478,0.526724365234375,9.86889924316406,-1.28808049316406
2.47581624178135,0.51714755859375,9.83059201660156,-1.26892687988281
2.48502989900792,0.512359155273437,9.79228479003906,-1.20188923339844
2.49424355623449,0.51714755859375,9.78749638671875,-1.24498486328125
2.50353455992375,0.545877978515625,9.81143840332031,-1.2641384765625
2.512825563613,0.550666381835937,9.81143840332031,-1.2641384765625
2.52211656730225,0.51714755859375,9.78749638671875,-1.18273562011719
2.53141207251059,0.483628735351562,9.81622680664062,-1.21625444335937
2.54070757771893,0.493205541992187,9.84974562988281,-1.32159931640625
2.55000308292728,0.4979939453125,9.81143840332031,-1.25456166992187
2.55930059388646,0.4979939453125,9.79228479003906,-1.22104284667969
2.56859810484565,0.454898315429687,9.82580361328125,-1.25456166992187
2.57789561580483,0.493205541992187,9.81143840332031,-1.25935007324219
2.58719500610431,0.521935961914062,9.87368764648437,-1.23540805664062
2.59649439640378,0.507570751953125,9.82580361328125,-1.20188923339844
2.60579378670326,0.47884033203125,9.83538041992187,-1.20188923339844
2.61509516278835,0.47884033203125,9.83538041992187,-1.23061965332031
2.62439653887344,0.469263525390625,9.883264453125,-1.24977326660156
2.63369791495853,0.45968671875,9.87847604980469,-1.27371528320312
2.64300111613039,0.47884033203125,9.81143840332031,-1.2641384765625
2.65230431730225,0.45968671875,9.84974562988281,-1.22104284667969
2.66160751847411,0.454898315429687,9.82580361328125,-1.19710083007812
2.67091294848715,0.47884033203125,9.81622680664062,-1.23540805664062
2.68021837850019,0.47884033203125,9.81622680664062,-1.302445703125
2.68952380851323,0.445321508789062,9.84016882324219,-1.25935007324219
2.70357455932706,0.464475122070312,9.84016882324219,-1.302445703125
2.71762531014089,0.445321508789062,9.87368764648437,-1.3407529296875
2.73167606095473,0.454898315429687,9.84016882324219,-1.29286889648437
2.74106276787747,0.4979939453125,9.85932243652344,-1.24019645996094
2.75044947480022,0.474051928710937,9.85453403320312,-1.21625444335937
2.75983618172296,0.536301171875,9.86889924316406,-1.23540805664062
2.76922664526465,0.4979939453125,9.86411083984375,-1.24019645996094
2.77861710880633,0.47884033203125,9.87368764648437,-1.29286889648437
2.78800757234802,0.521935961914062,9.91199487304687,-1.24498486328125
2.79740154934456,0.526724365234375,9.89284125976562,-1.28329208984375
2.80679552634109,0.469263525390625,9.883264453125,-1.26892687988281
2.81618950333763,0.51714755859375,9.86889924316406,-1.24498486328125
2.82558963007373,0.507570751953125,9.86889924316406,-1.30723410644531
2.83498975680984,0.550666381835937,9.89762966308594,-1.33596452636719
2.84438988354594,0.521935961914062,9.90720646972656,-1.28808049316406
2.85391390546437,0.536301171875,9.90720646972656,-1.29765729980469
2.86343792738279,0.541089575195312,9.90241806640625,-1.27371528320312
2.87296194930121,0.526724365234375,9.86889924316406,-1.23061965332031
2.88249174802083,0.521935961914062,9.90241806640625,-1.30723410644531
2.89202154674045,0.521935961914062,9.90241806640625,-1.2641384765625
2.90155134546006,0.560243188476563,9.91678327636719,-1.28808049316406
2.91108504240016,0.55545478515625,9.883264453125,-1.26892687988281
2.92061873934027,0.493205541992187,9.85932243652344,-1.27850368652344
2.93015243628037,0.536301171875,9.86889924316406,-1.22583125
2.93968963061629,0.565031591796875,9.89284125976562,-1.23540805664062
2.94922682495221,0.536301171875,9.89762966308594,-1.29765729980469
2.95876401928814,0.502782348632812,9.8449572265625,-1.27371528320312
2.96831699194439,0.545877978515625,9.90720646972656,-1.23061965332031
2.97786996460064,0.560243188476563,9.89762966308594,-1.29286889648437
2.98742293725689,0.521935961914062,9.89284125976562,-1.23540805664062
2.99702562356331,0.579396801757812,9.87847604980469,-1.27850368652344
3.00662830986973,0.536301171875,9.85453403320312,-1.28808049316406
3.01623099617615,0.545877978515625,9.88805285644531,-1.32638771972656
3.04504896785581,0.47884033203125,9.87847604980469,-1.27371528320312
3.07386693953547,0.464475122070312,9.89284125976562,-1.2641384765625
3.10268491121514,0.44053310546875,9.90241806640625,-1.25456166992187
3.11237931030369,0.435744702148437,9.90241806640625,-1.25935007324219
3.12207370939224,0.430956298828125,9.90241806640625,-1.28329208984375
3.1317681084808,0.44053310546875,9.84016882324219,-1.2641384765625
3.14146747935753,0.493205541992187,9.883264453125,-1.29765729980469
3.15116685023427,0.488417138671875,9.87847604980469,-1.31681091308594
3.16086622111101,0.450109912109375,9.88805285644531,-1.302445703125
3.17056927059019,0.47884033203125,9.89284125976562,-1.28329208984375
3.18027232006938,0.45968671875,9.88805285644531,-1.32159931640625
3.18997536954856,0.450109912109375,9.8449572265625,-1.24977326660156
3.19968219908414,0.47884033203125,9.883264453125,-1.31202250976562
3.20938902861972,0.4979939453125,9.87368764648437,-1.26892687988281
3.2190958581553,0.47884033203125,9.86411083984375,-1.25456166992187
3.22880614504767,0.488417138671875,9.86411083984375,-1.25935007324219
3.23851643194005,0.47884033203125,9.8449572265625,-1.29765729980469
3.24822671883243,0.507570751953125,9.82580361328125,-1.25935007324219
3.25794043519528,0.521935961914062,9.83538041992187,-1.302445703125
3.26765415155813,0.531512768554687,9.87847604980469,-1.24977326660156
3.27736786792099,0.464475122070312,9.85453403320312,-1.24498486328125
3.28709612464841,0.502782348632812,9.86411083984375,-1.302445703125
3.29682438137583,0.488417138671875,9.86889924316406,-1.31202250976562
3.30655263810326,0.493205541992187,9.81143840332031,-1.24019645996094
3.31840689336584,0.47884033203125,9.87368764648437,-1.29286889648437
3.33026114862842,0.47884033203125,9.86411083984375,-1.33117612304687
3.342115403891,0.45968671875,9.84974562988281,-1.31681091308594
3.34414655314231,0.47884033203125,9.81143840332031,-1.28329208984375
3.34617770239362,0.454898315429687,9.84016882324219,-1.27850368652344
3.34820885164493,0.464475122070312,9.80665,-1.2641384765625
3.35024032207679,0.474051928710937,9.85932243652344,-1.29286889648437
3.35227179250865,0.445321508789062,9.89762966308594,-1.29765729980469
3.3543032629405,0.450109912109375,9.86411083984375,-1.28808049316406
3.35633261423177,0.454898315429687,9.8449572265625,-1.32638771972656
3.35836196552303,0.45968671875,9.85932243652344,-1.33596452636719
3.36039131681429,0.474051928710937,9.87368764648437,-1.31202250976562
3.36242081871317,0.488417138671875,9.87368764648437,-1.27371528320312
3.36445032061206,0.450109912109375,9.883264453125,-1.29286889648437
3.36647982251094,0.469263525390625,9.86889924316406,-1.36948334960938
3.36856659014332,0.445321508789062,9.86889924316406,-1.23540805664062
3.3706533577757,0.483628735351562,9.86889924316406,-1.30723410644531
3.37274012540809,0.474051928710937,9.883264453125,-1.29286889648437
3.37482882088337,0.4979939453125,9.83059201660156,-1.29286889648437
3.37691751635865,0.469263525390625,9.85932243652344,-1.30723410644531
3.37900621183394,0.445321508789062,9.87847604980469,-1.26892687988281
3.38109598266726,0.445321508789062,9.8449572265625,-1.27371528320312
3.38318575350058,0.44053310546875,9.87368764648437,-1.32638771972656
3.38527552433391,0.464475122070312,9.83538041992187,-1.31202250976562
3.38735128999148,0.4979939453125,9.85932243652344,-1.27850368652344
3.38942705564906,0.493205541992187,9.84974562988281,-1.25935007324219
3.39150282130663,0.512359155273437,9.85932243652344,-1.32159931640625
3.39356151485045,0.493205541992187,9.86411083984375,-1.31202250976562
3.39562020839427,0.47884033203125,9.8449572265625,-1.32638771972656
3.39767890193809,0.474051928710937,9.89284125976562,-1.28808049316406
3.39979018340512,0.464475122070312,9.8449572265625,-1.29286889648437
3.40190146487214,0.474051928710937,9.84974562988281,-1.27850368652344
3.40401274633916,0.454898315429687,9.85932243652344,-1.24019645996094
3.40612308889558,0.450109912109375,9.8449572265625,-1.29765729980469
3.408233431452,0.483628735351562,9.8449572265625,-1.34554133300781
3.41034377400842,0.502782348632812,9.85932243652344,-1.27371528320312
3.41245226207267,0.454898315429687,9.883264453125,-1.26892687988281
3.41456075013692,0.469263525390625,9.90241806640625,-1.37427175292969
3.41666923820117,0.507570751953125,9.87847604980469,-1.28329208984375
3.41877669425586,0.526724365234375,9.84974562988281,-1.29765729980469
3.42088415031056,0.502782348632812,9.84974562988281,-1.35511813964844
3.42299160636526,0.512359155273437,9.86889924316406,-1.29765729980469
3.4250980482055,0.483628735351562,9.87368764648437,-1.28808049316406
3.42720449004575,0.445321508789062,9.85932243652344,-1.302445703125
3.42931093188599,0.507570751953125,9.84974562988281,-1.29765729980469
3.43141938132176,0.469263525390625,9.85453403320312,-1.34554133300781
3.43352783075754,0.464475122070312,9.8449572265625,-1.25456166992187
3.43563628019331,0.507570751953125,9.86889924316406,-1.302445703125
3.43766791647802,0.483628735351562,9.87847604980469,-1.28329208984375
3.43969955276274,0.507570751953125,9.88805285644531,-1.28808049316406
3.44173118904746,0.4979939453125,9.84016882324219,-1.25935007324219
3.4437575083834,0.531512768554687,9.86889924316406,-1.26892687988281
3.44578382771935,0.51714755859375,9.87368764648437,-1.302445703125
3.44781014705529,0.469263525390625,9.81622680664062,-1.302445703125
3.44983551163864,0.488417138671875,9.86411083984375,-1.27371528320312
3.45186087622199,0.51714755859375,9.85453403320312,-1.37906015625
3.45388624080533,0.526724365234375,9.83538041992187,-1.26892687988281
3.45591168025847,0.51714755859375,9.88805285644531,-1.35511813964844
3.45793711971161,0.502782348632812,9.8449572265625,-1.33596452636719
3.45996255916475,0.4979939453125,9.87847604980469,-1.27371528320312
3.46205505851371,0.521935961914062,9.87368764648437,-1.32638771972656
3.46414755786266,0.536301171875,9.86411083984375,-1.24977326660156
3.46624005721162,0.483628735351562,9.883264453125,-1.29765729980469
3.46833484041474,0.469263525390625,9.80665,-1.24977326660156
3.47042962361786,0.502782348632812,9.86889924316406,-1.302445703125
3.47252440682098,0.4979939453125,9.84974562988281,-1.37427175292969
3.4746196380493,0.488417138671875,9.87847604980469,-1.29286889648437
3.47671486927762,0.507570751953125,9.883264453125,-1.30723410644531
3.47881010050594,0.493205541992187,9.82101520996094,-1.32159931640625
3.48087941436228,0.51714755859375,9.86889924316406,-1.34554133300781
3.48294872821862,0.493205541992187,9.85453403320312,-1.28808049316406
3.48501804207496,0.47884033203125,9.83059201660156,-1.37906015625
3.48706137204455,0.512359155273437,9.86411083984375,-1.3407529296875
3.48910470201416,0.483628735351562,9.85932243652344,-1.23061965332031
3.49114803198376,0.531512768554687,9.86411083984375,-1.31202250976562
3.4932568700914,0.474051928710937,9.85932243652344,-1.30723410644531
3.49536570819906,0.4979939453125,9.84016882324219,-1.28808049316406
3.49747454630671,0.488417138671875,9.85453403320312,-1.24498486328125
3.49959156779105,0.464475122070312,9.83538041992187,-1.25935007324219
3.5017085892754,0.464475122070312,9.85453403320312,-1.30723410644531
3.50382561075975,0.502782348632812,9.88805285644531,-1.31681091308594
3.50594429988737,0.512359155273437,9.83538041992187,-1.29765729980469
3.50806298901498,0.488417138671875,9.87368764648437,-1.32159931640625
3.5101816781426,0.502782348632812,9.86411083984375,-1.25456166992187
3.51230041512177,0.502782348632812,9.83059201660156,-1.27371528320312
3.51441915210093,0.483628735351562,9.8449572265625,-1.31202250976562
3.5165378890801,0.4979939453125,9.82580361328125,-1.302445703125
3.51858807950977,0.469263525390625,9.82101520996094,-1.24498486328125
3.52063826993945,0.526724365234375,9.84974562988281,-1.29286889648437
3.52268846036912,0.526724365234375,9.83059201660156,-1.31202250976562
3.52478983894986,0.502782348632812,9.84016882324219,-1.302445703125
3.52689121753059,0.526724365234375,9.8449572265625,-1.29286889648437
3.52899259611132,0.4979939453125,9.86411083984375,-1.32638771972656
3.5310913626044,0.512359155273437,9.85453403320312,-1.29765729980469
3.53319012909748,0.502782348632812,9.86889924316406,-1.31681091308594
3.53528889559055,0.526724365234375,9.85453403320312,-1.32638771972656
3.53738227731801,0.483628735351562,9.84016882324219,-1.31202250976562
3.53947565904546,0.4979939453125,9.8449572265625,-1.32159931640625
3.54156904077291,0.502782348632812,9.8449572265625,-1.33596452636719
3.54366255314269,0.51714755859375,9.883264453125,-1.31202250976562
3.54575606551246,0.507570751953125,9.85932243652344,-1.30723410644531
3.54784957788223,0.474051928710937,9.8449572265625,-1.29765729980469
3.54989323717043,0.4979939453125,9.84016882324219,-1.31681091308594
3.55193689645862,0.474051928710937,9.83059201660156,-1.28808049316406
3.55398055574682,0.483628735351562,9.83538041992187,-1.27850368652344
3.55608718866785,0.483628735351562,9.84016882324219,-1.33596452636719
3.55819382158887,0.488417138671875,9.83538041992187,-1.34554133300781
3.5603004545099,0.507570751953125,9.84974562988281,-1.31202250976562
3.56240594474428,0.536301171875,9.79707319335937,-1.35511813964844
3.56451143497867,0.512359155273437,9.83538041992187,-1.33117612304687
3.56661692521305,0.507570751953125,9.82580361328125,-1.28808049316406
3.56872083721394,0.45968671875,9.84016882324219,-1.24977326660156
3.57082474921483,0.474051928710937,9.82101520996094,-1.27850368652344
3.57292866121571,0.474051928710937,9.81143840332031,-1.29286889648437
3.57503274812979,0.488417138671875,9.87847604980469,-1.33596452636719
3.57713683504386,0.488417138671875,9.83538041992187,-1.33596452636719
3.57924092195793,0.454898315429687,9.85932243652344,-1.33596452636719
3.58120390025656,0.507570751953125,9.88805285644531,-1.3407529296875
3.58316687855519,0.4979939453125,9.883264453125,-1.36948334960938
3.58512985685383,0.493205541992187,9.86889924316406,-1.35511813964844
3.58715850453179,0.507570751953125,9.87368764648437,-1.33117612304687
3.58918715220976,0.493205541992187,9.86889924316406,-1.35032973632813
3.59121579988772,0.4979939453125,9.89284125976562,-1.42694418945312
3.5932449716542,0.493205541992187,9.89762966308594,-1.33117612304687
3.59527414342068,0.464475122070312,9.86411083984375,-1.34554133300781
3.59730331518716,0.531512768554687,9.85932243652344,-1.33117612304687
3.59933163647624,0.488417138671875,9.83538041992187,-1.2641384765625
3.60135995776532,0.512359155273437,9.86411083984375,-1.33596452636719
3.6033882790544,0.493205541992187,9.83538041992187,-1.35032973632813
3.60541572317332,0.51714755859375,9.83059201660156,-1.36948334960938
3.60744316729224,0.541089575195312,9.84974562988281,-1.3407529296875
3.60947061141115,0.536301171875,9.83059201660156,-1.27371528320312
3.61149661076011,0.541089575195312,9.80665,-1.28329208984375
3.61352261010906,0.512359155273437,9.81622680664062,-1.302445703125
3.61554860945802,0.531512768554687,9.81622680664062,-1.31681091308594
3.61764252623321,0.4979939453125,9.82580361328125,-1.33117612304687
3.6197364430084,0.4979939453125,9.81143840332031,-1.27850368652344
3.62183035978359,0.531512768554687,9.84016882324219,-1.302445703125
3.62390635130647,0.464475122070312,9.83059201660156,-1.35032973632813
3.62598234282936,0.536301171875,9.84016882324219,-1.30723410644531
3.62805833435225,0.474051928710937,9.85453403320312,-1.32638771972656
3.63010564157611,0.541089575195312,9.85453403320312,-1.30723410644531
3.63215294879997,0.521935961914062,9.86889924316406,-1.37906015625
3.63420025602383,0.502782348632812,9.85932243652344,-1.38863696289062
3.63624046153599,0.521935961914062,9.89762966308594,-1.32638771972656
3.63828066704814,0.545877978515625,9.85453403320312,-1.40779057617187
3.6403208725603,0.4979939453125,9.88805285644531,-1.40300217285156
3.64232250179207,0.521935961914062,9.8449572265625,-1.33117612304687
3.64432413102385,0.521935961914062,9.883264453125,-1.3407529296875
3.64632576025562,0.536301171875,9.89284125976562,-1.31681091308594
3.64835421278382,0.502782348632812,9.89762966308594,-1.37427175292969
3.65038266531202,0.507570751953125,9.83538041992187,-1.29286889648437
3.65241111784022,0.550666381835937,9.85932243652344,-1.27371528320312
3.65444202669436,0.526724365234375,9.84974562988281,-1.3407529296875
3.6564729355485,0.531512768554687,9.88805285644531,-1.28329208984375
3.65850384440265,0.55545478515625,9.86411083984375,-1.31681091308594
3.6605386187082,0.545877978515625,9.87847604980469,-1.32638771972656
3.66257339301375,0.55545478515625,9.84974562988281,-1.302445703125
3.6646081673193,0.536301171875,9.87368764648437,-1.37906015625
3.66664350358232,0.579396801757812,9.87368764648437,-1.3407529296875
3.66867883984534,0.545877978515625,9.9215716796875,-1.27371528320312
3.67071417610836,0.502782348632812,9.91199487304687,-1.36948334960938
3.67274952772511,0.565031591796875,9.87847604980469,-1.32159931640625
3.67478487934186,0.531512768554687,9.86411083984375,-1.34554133300781
3.67682023095861,0.483628735351562,9.86889924316406,-1.39342536621094
3.67891600396207,0.488417138671875,9.87368764648437,-1.35511813964844
3.68101177696552,0.488417138671875,9.86411083984375,-1.36948334960938
3.68310754996898,0.474051928710937,9.85932243652344,-1.36469494628906
3.68520363001996,0.45968671875,9.87847604980469,-1.36948334960938
3.68729971007094,0.488417138671875,9.88805285644531,-1.32638771972656
3.68939579012192,0.474051928710937,9.8449572265625,-1.3407529296875
3.6914485071358,0.454898315429687,9.87847604980469,-1.35990654296875
3.69350122414968,0.430956298828125,9.89284125976562,-1.34554133300781
3.69555394116355,0.45968671875,9.90720646972656,-1.36948334960938
3.6976010790759,0.450109912109375,9.88805285644531,-1.34554133300781
3.69964821698826,0.464475122070312,9.89762966308594,-1.37427175292969
3.70169535490061,0.483628735351562,9.90720646972656,-1.29286889648437
3.70374300160199,0.474051928710937,9.87368764648437,-1.32638771972656
3.70579064830338,0.488417138671875,9.87847604980469,-1.28808049316406
3.70783829500476,0.45968671875,9.86411083984375,-1.30723410644531
3.7099325287287,0.47884033203125,9.89284125976562,-1.30723410644531
3.71202676245264,0.464475122070312,9.87368764648437,-1.29286889648437
3.71412099617658,0.507570751953125,9.87368764648437,-1.29765729980469
3.71621600019133,0.545877978515625,9.84974562988281,-1.31202250976562
3.71831100420608,0.47884033203125,9.86411083984375,-1.37906015625
3.72040600822083,0.521935961914062,9.883264453125,-1.39342536621094
3.72244278925382,0.531512768554687,9.85453403320312,-1.37906015625
3.7244795702868,0.545877978515625,9.84974562988281,-1.35990654296875
3.72651635131979,0.4979939453125,9.883264453125,-1.42694418945312
3.7284765438111,0.541089575195312,9.84016882324219,-1.35032973632813
3.73043673630241,0.59376201171875,9.85453403320312,-1.40300217285156
3.73239692879372,0.560243188476563,9.83059201660156,-1.29765729980469
3.73435606855067,0.550666381835937,9.81143840332031,-1.35990654296875
3.73631520830763,0.59376201171875,9.79707319335937,-1.43652099609375
3.73827434806458,0.565031591796875,9.82580361328125,-1.36469494628906
3.74038892239184,0.560243188476563,9.80665,-1.30723410644531
3.74250349671911,0.569819995117188,9.81622680664062,-1.35032973632813
3.74461807104638,0.560243188476563,9.83538041992187,-1.35032973632813
3.74673534415839,0.5746083984375,9.80186159667969,-1.37427175292969
3.7488526172704,0.550666381835937,9.81143840332031,-1.32638771972656
3.75096989038241,0.545877978515625,9.79228479003906,-1.40300217285156
3.75308852720968,0.565031591796875,9.81622680664062,-1.37906015625
3.75520716403696,0.550666381835937,9.77791958007812,-1.40779057617187
3.75732580086424,0.588973608398437,9.78270798339844,-1.31202250976562
3.75944516371146,0.545877978515625,9.78270798339844,-1.23540805664062
3.76156452655869,0.565031591796875,9.81143840332031,-1.33596452636719
3.76368388940591,0.521935961914062,9.80186159667969,-1.36948334960938
3.76580333916718,0.579396801757812,9.82580361328125,-1.37427175292969
3.76792278892844,0.493205541992187,9.85932243652344,-1.3407529296875
3.77004223868971,0.521935961914062,9.81622680664062,-1.41257897949219
3.77211463286831,0.541089575195312,9.79707319335937,-1.39821376953125
3.77418702704692,0.488417138671875,9.86889924316406,-1.42694418945312
3.77625942122552,0.526724365234375,9.86411083984375,-1.35990654296875
3.77836762977586,0.512359155273437,9.8449572265625,-1.37427175292969
3.7804758383262,0.4979939453125,9.87368764648437,-1.36948334960938
3.78258404687654,0.45968671875,9.82101520996094,-1.39342536621094
3.78785148207077,0.512359155273437,9.82101520996094,-1.38384855957031
3.793118917265,0.512359155273437,9.82580361328125,-1.39342536621094
3.79838635245923,0.4979939453125,9.8449572265625,-1.35032973632813
3.80049809106599,0.512359155273437,9.83538041992187,-1.38384855957031
3.80260982967276,0.512359155273437,9.79707319335937,-1.35511813964844
3.80472156827952,0.493205541992187,9.81622680664062,-1.36469494628906
3.80683528594444,0.507570751953125,9.8449572265625,-1.40779057617187
3.80894900360936,0.493205541992187,9.83059201660156,-1.37906015625
3.81106272127428,0.488417138671875,9.84016882324219,-1.4173673828125
3.81311088631333,0.450109912109375,9.82580361328125,-1.33596452636719
3.81515905135239,0.488417138671875,9.8449572265625,-1.40300217285156
3.81720721639144,0.531512768554687,9.86889924316406,-1.33117612304687
3.81925230308848,0.526724365234375,9.87368764648437,-1.39821376953125
3.82129738978552,0.536301171875,9.87368764648437,-1.33596452636719
3.82334247648257,0.521935961914062,9.90241806640625,-1.4173673828125
3.8255207927803,0.55545478515625,9.87847604980469,-1.37906015625
3.82769910907804,0.502782348632812,9.85932243652344,-1.31202250976562
3.82987742537577,0.4979939453125,9.84974562988281,-1.3407529296875
3.83205649981154,0.536301171875,9.86889924316406,-1.38863696289062
3.83423557424731,0.521935961914062,9.86889924316406,-1.37906015625
3.83641464868307,0.541089575195312,9.90241806640625,-1.35032973632813
3.83859436775861,0.545877978515625,9.86411083984375,-1.44130939941406
3.84077408683414,0.565031591796875,9.86411083984375,-1.38384855957031
3.84295380590967,0.560243188476563,9.86411083984375,-1.38384855957031
3.84507073939491,0.579396801757812,9.89284125976562,-1.40779057617187
3.84718767288015,0.588973608398437,9.86889924316406,-1.35511813964844
3.84930460636539,0.59376201171875,9.90720646972656,-1.35990654296875
3.85141987611364,0.598550415039062,9.84974562988281,-1.36948334960938
3.85353514586189,0.55545478515625,9.84016882324219,-1.39821376953125
3.85565041561014,0.550666381835937,9.90720646972656,-1.37906015625
3.85775952552767,0.569819995117188,9.85453403320312,-1.37427175292969
3.8598686354452,0.608127221679687,9.84974562988281,-1.38384855957031
3.86197774536274,0.588973608398437,9.83059201660156,-1.32638771972656
3.86402251576204,0.541089575195312,9.83538041992187,-1.36948334960938
3.86606728616134,0.565031591796875,9.87368764648437,-1.3407529296875
3.86811205656065,0.526724365234375,9.85932243652344,-1.37427175292969
3.87329162896188,0.502782348632812,9.87368764648437,-1.37427175292969
3.87847120136311,0.474051928710937,9.85932243652344,-1.45088620605469
3.88365077376434,0.469263525390625,9.80665,-1.40300217285156
3.88573470714106,0.507570751953125,9.883264453125,-1.41257897949219
3.88781864051777,0.502782348632812,9.9215716796875,-1.39821376953125
3.88990257389449,0.512359155273437,9.86889924316406,-1.44130939941406
3.89198648486455,0.483628735351562,9.85453403320312,-1.4173673828125
3.89407039583461,0.474051928710937,9.84974562988281,-1.42694418945312
3.89615430680468,0.512359155273437,9.86889924316406,-1.41257897949219
3.89829477327604,0.4979939453125,9.883264453125,-1.39342536621094
3.9004352397474,0.536301171875,9.85932243652344,-1.38863696289062
3.90257570621876,0.512359155273437,9.83538041992187,-1.35032973632813
3.90469854150519,0.4979939453125,9.87847604980469,-1.35032973632813
3.90682137679163,0.488417138671875,9.85932243652344,-1.35511813964844
3.90894421207807,0.51714755859375,9.8449572265625,-1.38863696289062
3.9110680853962,0.51714755859375,9.88805285644531,-1.35511813964844
3.91319195871433,0.550666381835937,9.85453403320312,-1.35032973632813
3.91531583203246,0.55545478515625,9.84974562988281,-1.41257897949219
3.91744064843869,0.55545478515625,9.87368764648437,-1.38863696289062
3.91956546484493,0.531512768554687,9.86411083984375,-1.32159931640625
3.92169028125116,0.51714755859375,9.84016882324219,-1.34554133300781
3.92381420106453,0.536301171875,9.82101520996094,-1.4173673828125
3.92593812087791,0.59376201171875,9.88805285644531,-1.40779057617187
3.92806204069129,0.569819995117188,9.85453403320312,-1.35990654296875
3.93018600260538,0.536301171875,9.83059201660156,-1.35511813964844
3.93230996451948,0.541089575195312,9.84974562988281,-1.4173673828125
3.93443392643357,0.550666381835937,9.82580361328125,-1.38863696289062
3.93652639963236,0.545877978515625,9.8449572265625,-1.38863696289062
3.93861887283114,0.521935961914062,9.86411083984375,-1.41257897949219
3.94071134602993,0.521935961914062,9.86889924316406,-1.38863696289062
3.94281880181335,0.512359155273437,9.82580361328125,-1.39342536621094
3.94492625759677,0.5746083984375,9.84016882324219,-1.4173673828125
3.94703371338019,0.51714755859375,9.83538041992187,-1.47003981933594
3.9491070989596,0.512359155273437,9.82101520996094,-1.44609780273437
3.951180484539,0.493205541992187,9.83538041992187,-1.43173259277344
3.9532538701184,0.502782348632812,9.82580361328125,-1.39342536621094
3.9552920639118,0.493205541992187,9.83059201660156,-1.42215578613281
3.95733025770519,0.502782348632812,9.85932243652344,-1.44609780273437
3.95936845149859,0.531512768554687,9.80186159667969,-1.47961662597656
3.96140681613619,0.493205541992187,9.82580361328125,-1.47961662597656
3.96344518077379,0.464475122070312,9.86889924316406,-1.455674609375
3.96548354541139,0.4979939453125,9.82580361328125,-1.41257897949219
3.96752181602772,0.51714755859375,9.85932243652344,-1.42215578613281
3.96956008664405,0.493205541992187,9.86889924316406,-1.455674609375
3.97159835726038,0.502782348632812,9.8449572265625,-1.4173673828125
3.97369616004898,0.483628735351562,9.85453403320312,-1.44609780273437
3.97579396283759,0.526724365234375,9.83538041992187,-1.47003981933594
3.9778917656262,0.4979939453125,9.81622680664062,-1.43652099609375
3.98007281553939,0.507570751953125,9.81143840332031,-1.46046301269531
3.98225386545258,0.526724365234375,9.83538041992187,-1.43173259277344
3.98443491536577,0.4979939453125,9.81143840332031,-1.4173673828125
3.98662008772903,0.454898315429687,9.84974562988281,-1.43173259277344
3.9888052600923,0.469263525390625,9.84974562988281,-1.39342536621094
3.99099043245556,0.536301171875,9.83059201660156,-1.47961662597656
3.9931578570432,0.541089575195312,9.83538041992187,-1.44130939941406
3.99532528163084,0.493205541992187,9.82580361328125,-1.39342536621094
3.99749270621848,0.502782348632812,9.83538041992187,-1.4173673828125
3.9996064145518,0.526724365234375,9.82101520996094,-1.40300217285156
4.00172012288511,0.488417138671875,9.82101520996094,-1.37906015625
4.00383383121843,0.541089575195312,9.82101520996094,-1.38384855957031
4.00595618440852,0.512359155273437,9.85453403320312,-1.41257897949219
4.00807853759861,0.545877978515625,9.85453403320312,-1.49877023925781
4.0102008907887,0.526724365234375,9.86889924316406,-1.42215578613281
4.01232144851437,0.55545478515625,9.85453403320312,-1.37906015625
4.01444200624005,0.565031591796875,9.82580361328125,-1.46525141601562
4.01656256396572,0.55545478515625,9.80665,-1.46046301269531
4.01868374343618,0.512359155273437,9.86411083984375,-1.43652099609375
4.02080492290665,0.483628735351562,9.87847604980469,-1.51313544921875
4.02292610237711,0.531512768554687,9.85453403320312,-1.38384855957031
4.02810000051617,0.545877978515625,9.85453403320312,-1.41257897949219
4.03327389865523,0.526724365234375,9.82101520996094,-1.42215578613281
4.03844779679429,0.507570751953125,9.83059201660156,-1.45088620605469
4.0404784607483,0.4979939453125,9.84974562988281,-1.42694418945312
4.04250912470231,0.536301171875,9.85932243652344,-1.455674609375
4.04453978865632,0.550666381835937,9.83538041992187,-1.40779057617187
4.04656864021884,0.502782348632812,9.84016882324219,-1.39821376953125
4.04859749178136,0.526724365234375,9.85453403320312,-1.46525141601562
4.05062634334388,0.512359155273437,9.81143840332031,-1.4173673828125
4.05264920461775,0.531512768554687,9.84016882324219,-1.42215578613281
4.05467206589162,0.531512768554687,9.87847604980469,-1.42694418945312
4.05669492716549,0.493205541992187,9.85453403320312,-1.41257897949219
4.05869136461126,0.531512768554687,9.81143840332031,-1.44609780273437
4.06068780205703,0.526724365234375,9.83059201660156,-1.47003981933594
4.0626842395028,0.521935961914062,9.84974562988281,-1.37427175292969
4.0647237486391,0.545877978515625,9.82101520996094,-1.42694418945312
4.0667632577754,0.55545478515625,9.82580361328125,-1.39821376953125
4.0688027669117,0.536301171875,9.8449572265625,-1.51792385253906
4.07084495506277,0.507570751953125,9.83538041992187,-1.39821376953125
4.07288714321384,0.521935961914062,9.82101520996094,-1.455674609375
4.07492933136491,0.531512768554687,9.80665,-1.47003981933594
4.07697315632152,0.512359155273437,9.82101520996094,-1.48440502929687
4.07901698127813,0.545877978515625,9.8449572265625,-1.44609780273437
4.08106080623475,0.569819995117188,9.82101520996094,-1.39821376953125
4.08306463126729,0.541089575195312,9.84016882324219,-1.40300217285156
4.08506845629984,0.507570751953125,9.80665,-1.41257897949219
4.08707228133238,0.507570751953125,9.83059201660156,-1.40779057617187
4.08903228274299,0.502782348632812,9.86889924316406,-1.45088620605469
4.09099228415359,0.51714755859375,9.82101520996094,-1.44130939941406
4.09295228556419,0.483628735351562,9.87847604980469,-1.35511813964844
4.09511950236108,0.493205541992187,9.83538041992187,-1.45088620605469
4.09728671915796,0.483628735351562,9.86411083984375,-1.38384855957031
4.09945393595484,0.536301171875,9.85932243652344,-1.42215578613281
4.10162546736759,0.507570751953125,9.87368764648437,-1.37906015625
4.10379699878033,0.51714755859375,9.87847604980469,-1.39342536621094
4.10596853019308,0.55545478515625,9.85453403320312,-1.44130939941406
4.10814097697043,0.545877978515625,9.883264453125,-1.36948334960938
4.11031342374777,0.493205541992187,9.8449572265625,-1.43173259277344
4.11248587052512,0.512359155273437,9.82580361328125,-1.4173673828125
4.11466105173171,0.521935961914062,9.83538041992187,-1.40779057617187
4.1168362329383,0.521935961914062,9.8449572265625,-1.47482822265625
4.11901141414489,0.536301171875,9.82580361328125,-1.41257897949219
4.12118260533415,0.512359155273437,9.81143840332031,-1.43652099609375
4.1233537965234,0.526724365234375,9.80186159667969,-1.46525141601562
4.12552498771265,0.502782348632812,9.84016882324219,-1.42694418945312
4.12768896103804,0.536301171875,9.81143840332031,-1.44609780273437
4.12985293436344,0.531512768554687,9.80665,-1.40300217285156
4.13201690768883,0.531512768554687,9.80665,-1.40300217285156
4.13843488303969,0.526724365234375,9.81622680664062,-1.38384855957031
4.14485285839056,0.4979939453125,9.85453403320312,-1.42215578613281
4.15127083374142,0.521935961914062,9.78749638671875,-1.37906015625
4.15770847794712,0.536301171875,9.87368764648437,-1.43652099609375
4.16414612215281,0.526724365234375,9.87368764648437,-1.46046301269531
4.1705837663585,0.521935961914062,9.85453403320312,-1.47003981933594
4.17269455118924,0.55545478515625,9.82580361328125,-1.44609780273437
4.17480533601997,0.526724365234375,9.84016882324219,-1.4939818359375
4.17691612085071,0.569819995117188,9.86889924316406,-1.42694418945312
4.17902641485026,0.521935961914062,9.79228479003906,-1.47961662597656
4.18113670884982,0.507570751953125,9.85932243652344,-1.42694418945312
4.18324700284938,0.545877978515625,9.84974562988281,-1.43173259277344
4.18535730938152,0.545877978515625,9.8449572265625,-1.40300217285156
4.18746761591365,0.569819995117188,9.85453403320312,-1.41257897949219
4.18957792244578,0.536301171875,9.78270798339844,-1.40779057617187
4.19168704999568,0.565031591796875,9.83059201660156,-1.48440502929687
4.19379617754559,0.531512768554687,9.84016882324219,-1.43173259277344
4.19590530509549,0.502782348632812,9.80665,-1.40300217285156
4.1980572629948,0.545877978515625,9.80665,-1.47482822265625
4.2002092208941,0.545877978515625,9.77313117675781,-1.42694418945312
4.20236117879341,0.541089575195312,9.86411083984375,-1.42694418945312
4.20448202655816,0.531512768554687,9.86411083984375,-1.44130939941406
4.20660287432291,0.507570751953125,9.82580361328125,-1.4173673828125
4.20872372208765,0.521935961914062,9.79707319335937,-1.42215578613281
4.21084563105031,0.4979939453125,9.80186159667969,-1.43173259277344
4.21296754001296,0.512359155273437,9.80186159667969,-1.44609780273437
4.21508944897562,0.541089575195312,9.82580361328125,-1.47003981933594
4.21721377612406,0.51714755859375,9.8449572265625,-1.47003981933594
4.21933810327251,0.502782348632812,9.87368764648437,-1.48440502929687
4.22146243042096,0.560243188476563,9.83538041992187,-1.42215578613281
4.22365506958111,0.536301171875,9.81622680664062,-1.43173259277344
4.22584770874126,0.531512768554687,9.85932243652344,-1.50834704589844
4.22804034790141,0.51714755859375,9.84974562988281,-1.46046301269531
4.23020567271696,0.502782348632812,9.85453403320312,-1.40300217285156
4.2323709975325,0.531512768554687,9.87847604980469,-1.455674609375
4.23453632234805,0.550666381835937,9.85453403320312,-1.46525141601562
4.23666997908632,0.55545478515625,9.82580361328125,-1.49877023925781
4.2388036358246,0.550666381835937,9.87847604980469,-1.43652099609375
4.24093729256288,0.565031591796875,9.86889924316406,-1.46046301269531
4.24307414748908,0.59376201171875,9.83059201660156,-1.42694418945312
4.24521100241528,0.526724365234375,9.85453403320312,-1.455674609375
4.24734785734148,0.588973608398437,9.84974562988281,-1.42694418945312
4.24948667277116,0.550666381835937,9.84016882324219,-1.39342536621094
4.25162548820085,0.588973608398437,9.80186159667969,-1.42694418945312
4.25376430363053,0.569819995117188,9.85932243652344,-1.37427175292969
4.25594445939223,0.59376201171875,9.83059201660156,-1.4173673828125
4.25812461515394,0.565031591796875,9.84974562988281,-1.48440502929687
4.26030477091564,0.560243188476563,9.86889924316406,-1.39821376953125
4.2624544381791,0.560243188476563,9.85932243652344,-1.38863696289062
4.26460410544255,0.526724365234375,9.86411083984375,-1.4173673828125
4.26675377270601,0.4979939453125,9.883264453125,-1.4939818359375
4.26888409752157,0.545877978515625,9.89284125976562,-1.43173259277344
4.27101442233713,0.526724365234375,9.84016882324219,-1.39821376953125
4.27314474715268,0.521935961914062,9.83059201660156,-1.44130939941406
4.27527567374775,0.502782348632812,9.84974562988281,-1.455674609375
4.27740660034281,0.464475122070312,9.84974562988281,-1.45088620605469
4.27953752693787,0.531512768554687,9.85932243652344,-1.46046301269531
4.28166997550558,0.47884033203125,9.81622680664062,-1.40779057617187
4.2838024240733,0.450109912109375,9.85932243652344,-1.455674609375
4.28593487264101,0.445321508789062,9.89284125976562,-1.45088620605469
4.28811202623261,0.493205541992187,9.85453403320312,-1.43652099609375
4.2902891798242,0.507570751953125,9.84974562988281,-1.45088620605469
4.2924663334158,0.45968671875,9.86411083984375,-1.45088620605469
4.29461517922743,0.45968671875,9.8449572265625,-1.49877023925781
4.29676402503907,0.483628735351562,9.8449572265625,-1.46525141601562
4.2989128708507,0.445321508789062,9.84974562988281,-1.39342536621094
4.30102643231987,0.521935961914062,9.83538041992187,-1.4173673828125
4.30313999378905,0.51714755859375,9.8449572265625,-1.43652099609375
4.30525355525822,0.488417138671875,9.80186159667969,-1.45088620605469
4.30736381865883,0.493205541992187,9.82101520996094,-1.40779057617187
4.30947408205945,0.512359155273437,9.83538041992187,-1.44609780273437
4.31158434546006,0.488417138671875,9.78749638671875,-1.51313544921875
4.3136984290104,0.512359155273437,9.77791958007812,-1.42694418945312
4.31581251256074,0.507570751953125,9.82580361328125,-1.46046301269531
4.31792659611108,0.51714755859375,9.80186159667969,-1.455674609375
4.32009555574651,0.541089575195312,9.80186159667969,-1.42694418945312
4.32226451538194,0.55545478515625,9.79228479003906,-1.44609780273437
4.32443347501737,0.51714755859375,9.80665,-1.4173673828125
4.32657804901911,0.59376201171875,9.82580361328125,-1.43173259277344
4.32872262302086,0.569819995117188,9.81622680664062,-1.455674609375
4.3308671970226,0.579396801757812,9.76355437011719,-1.40300217285156
4.33298588652997,0.579396801757812,9.83538041992187,-1.43652099609375
4.33510457603734,0.55545478515625,9.81143840332031,-1.43652099609375
4.33722326554471,0.565031591796875,9.82580361328125,-1.42215578613281
4.3393441524262,0.59376201171875,9.81143840332031,-1.44130939941406
4.34146503930769,0.608127221679687,9.84016882324219,-1.43652099609375
4.34358592618918,0.598550415039062,9.84974562988281,-1.45088620605469
4.34570887557068,0.603338818359375,9.84016882324219,-1.43173259277344
4.34783182495219,0.588973608398437,9.80665,-1.35990654296875
4.3499547743337,0.59376201171875,9.80665,-1.43652099609375
4.35214278550992,0.612915625,9.84016882324219,-1.38863696289062
4.35433079668614,0.622492431640625,9.82101520996094,-1.42694418945312
4.35651880786236,0.588973608398437,9.78749638671875,-1.48440502929687
4.35867625583326,0.5746083984375,9.81622680664062,-1.44609780273437
4.36083370380417,0.560243188476563,9.80186159667969,-1.37427175292969
4.36299115177508,0.569819995117188,9.82101520996094,-1.39342536621094
4.36511830064658,0.579396801757812,9.85453403320312,-1.35511813964844
4.36724544951808,0.541089575195312,9.82580361328125,-1.43652099609375
4.36937259838959,0.5746083984375,9.78749638671875,-1.37906015625
4.37150079885618,0.5746083984375,9.83059201660156,-1.38863696289062
4.37362899932276,0.579396801757812,9.83059201660156,-1.40300217285156
4.37575719978935,0.541089575195312,9.80665,-1.42215578613281
4.37788847691606,0.5746083984375,9.84016882324219,-1.44130939941406
4.38001975404277,0.55545478515625,9.81622680664062,-1.46046301269531
4.38215103116949,0.507570751953125,9.80665,-1.43173259277344
4.38434612833743,0.550666381835937,9.80186159667969,-1.47482822265625
4.38654122550537,0.541089575195312,9.80186159667969,-1.40779057617187
4.38873632267331,0.521935961914062,9.84974562988281,-1.51313544921875
4.39090132375838,0.569819995117188,9.78270798339844,-1.47961662597656
4.39306632484346,0.560243188476563,9.81622680664062,-1.44130939941406
4.39523132592853,0.550666381835937,9.80665,-1.45088620605469
4.39736421378662,0.526724365234375,9.87368764648437,-1.42694418945312
4.39949710164471,0.579396801757812,9.79707319335937,-1.50355864257812
4.40162998950279,0.526724365234375,9.8449572265625,-1.43652099609375
4.4037644912389,0.560243188476563,9.79228479003906,-1.48440502929687
4.405898992975,0.526724365234375,9.85453403320312,-1.43173259277344
4.40803349471111,0.545877978515625,9.82101520996094,-1.42694418945312
4.41016944821587,0.536301171875,9.84016882324219,-1.4173673828125
4.41230540172063,0.588973608398437,9.82580361328125,-1.47003981933594
4.41444135522539,0.569819995117188,9.82580361328125,-1.47482822265625
4.4166215709372,0.541089575195312,9.8449572265625,-1.48440502929687
4.418801786649,0.536301171875,9.85932243652344,-1.48919343261719
4.4209820023608,0.5746083984375,9.81143840332031,-1.43652099609375
4.42313208395804,0.5746083984375,9.81622680664062,-1.44609780273437
4.42528216555528,0.536301171875,9.85453403320312,-1.455674609375
4.42743224715252,0.55545478515625,9.83538041992187,-1.47003981933594
4.42956295819852,0.55545478515625,9.83059201660156,-1.42215578613281
4.43169366924451,0.536301171875,9.83538041992187,-1.47961662597656
4.4338243802905,0.536301171875,9.86411083984375,-1.50834704589844
4.43595566061818,0.565031591796875,9.82580361328125,-1.38863696289062
4.43808694094586,0.584185205078125,9.84974562988281,-1.42694418945312
4.44021822127354,0.536301171875,9.87368764648437,-1.42215578613281
4.44235126516461,0.565031591796875,9.85453403320312,-1.48440502929687
4.44448430905569,0.569819995117188,9.86411083984375,-1.48440502929687
4.44661735294676,0.584185205078125,9.83538041992187,-1.4173673828125
4.44879523244979,0.545877978515625,9.83538041992187,-1.45088620605469
4.45097311195282,0.584185205078125,9.83538041992187,-1.42215578613281
4.45315099145586,0.598550415039062,9.84974562988281,-1.43173259277344
4.45529930856738,0.565031591796875,9.88805285644531,-1.40779057617187
4.45744762567891,0.598550415039062,9.84974562988281,-1.50834704589844
4.45959594279043,0.63206923828125,9.8449572265625,-1.46525141601562
4.46171150480215,0.579396801757812,9.83059201660156,-1.455674609375
4.46382706681387,0.579396801757812,9.8449572265625,-1.43173259277344
4.46594262882559,0.569819995117188,9.82580361328125,-1.38863696289062
4.46805601163807,0.598550415039062,9.85453403320312,-1.42215578613281
4.47016939445056,0.569819995117188,9.83059201660156,-1.43652099609375
4.47228277726305,0.588973608398437,9.84016882324219,-1.47482822265625
4.47440993790758,0.5746083984375,9.86889924316406,-1.47961662597656
4.47653709855211,0.579396801757812,9.86411083984375,-1.4173673828125
4.47866425919665,0.55545478515625,9.85453403320312,-1.39821376953125
4.480834252849,0.55545478515625,9.81622680664062,-1.38384855957031
4.48300424650135,0.565031591796875,9.83538041992187,-1.45088620605469
4.4851742401537,0.545877978515625,9.82580361328125,-1.45088620605469
4.48738991967845,0.536301171875,9.83538041992187,-1.49877023925781
4.48960559920321,0.526724365234375,9.83538041992187,-1.38384855957031
4.49182127872797,0.51714755859375,9.86889924316406,-1.455674609375
4.4940771366924,0.55545478515625,9.87847604980469,-1.50834704589844
4.49633299465683,0.526724365234375,9.84974562988281,-1.455674609375
4.49858885262125,0.526724365234375,9.85932243652344,-1.45088620605469
4.50083759996284,0.512359155273437,9.85453403320312,-1.4173673828125
4.50308634730442,0.560243188476563,9.82101520996094,-1.47482822265625
4.505335094646,0.521935961914062,9.8449572265625,-1.45088620605469
4.50758637453966,0.531512768554687,9.86411083984375,-1.43173259277344
4.50983765443332,0.4979939453125,9.85932243652344,-1.455674609375
4.51208893432698,0.545877978515625,9.87847604980469,-1.40300217285156
4.51434133309001,0.502782348632812,9.81143840332031,-1.47482822265625
4.51659373185303,0.545877978515625,9.80186159667969,-1.44609780273437
4.51884613061605,0.531512768554687,9.84016882324219,-1.44130939941406
4.52121554853054,0.536301171875,9.8449572265625,-1.42694418945312
4.52358496644503,0.51714755859375,9.81622680664062,-1.42694418945312
4.52595438435952,0.545877978515625,9.82580361328125,-1.41257897949219
4.53182051793155,0.569819995117188,9.81622680664062,-1.42694418945312
4.53768665150358,0.541089575195312,9.80665,-1.46046301269531
4.5435527850756,0.536301171875,9.81622680664062,-1.44609780273437
4.55043346986291,0.541089575195312,9.83538041992187,-1.41257897949219
4.55731415465022,0.541089575195312,9.84974562988281,-1.44609780273437
4.56419483943753,0.541089575195312,9.8449572265625,-1.48919343261719
4.56638293275348,0.521935961914062,9.81143840332031,-1.43173259277344
4.56857102606943,0.545877978515625,9.86889924316406,-1.44609780273437
4.57075911938537,0.550666381835937,9.86411083984375,-1.4939818359375
4.57296593611711,0.541089575195312,9.80665,-1.45088620605469
4.57517275284885,0.541089575195312,9.86411083984375,-1.39342536621094
4.57737956958059,0.536301171875,9.80665,-1.46046301269531
4.57958804853023,0.541089575195312,9.86411083984375,-1.47482822265625
4.58179652747988,0.521935961914062,9.86411083984375,-1.42215578613281
4.58400500642952,0.502782348632812,9.80665,-1.40300217285156
4.58731872406735,0.550666381835937,9.79707319335937,-1.455674609375
4.59063244170518,0.512359155273437,9.8449572265625,-1.455674609375
4.59394615934301,0.541089575195312,9.84016882324219,-1.46046301269531
4.60065785576772,0.4979939453125,9.85932243652344,-1.47482822265625
4.60736955219243,0.531512768554687,9.80665,-1.39342536621094
4.61408124861714,0.502782348632812,9.81622680664062,-1.4939818359375
4.61634757761018,0.483628735351562,9.83538041992187,-1.455674609375
4.61861390660321,0.545877978515625,9.82580361328125,-1.39821376953125
4.62088023559625,0.545877978515625,9.8449572265625,-1.48919343261719
4.62314234269263,0.55545478515625,9.85453403320312,-1.48440502929687
4.62540444978902,0.531512768554687,9.84974562988281,-1.47482822265625
4.6276665568854,0.536301171875,9.83059201660156,-1.38384855957031
4.62992678778816,0.536301171875,9.85453403320312,-1.4173673828125
4.63218701869092,0.545877978515625,9.83538041992187,-1.4939818359375
4.63444724959368,0.545877978515625,9.82101520996094,-1.43652099609375
4.63670816875602,0.579396801757812,9.80186159667969,-1.51792385253906
4.63896908791836,0.531512768554687,9.84016882324219,-1.4173673828125
4.64123000708071,0.579396801757812,9.81622680664062,-1.41257897949219
4.64349053746264,0.560243188476563,9.85932243652344,-1.49877023925781
4.64575106784457,0.550666381835937,9.83538041992187,-1.44609780273437
4.6480115982265,0.521935961914062,9.87368764648437,-1.46525141601562
4.65013824536194,0.512359155273437,9.83059201660156,-1.48440502929687
4.65226489249737,0.531512768554687,9.84974562988281,-1.39342536621094
4.6543915396328,0.512359155273437,9.8449572265625,-1.46046301269531
4.65980517708398,0.560243188476563,9.81622680664062,-1.47961662597656
4.66521881453516,0.541089575195312,9.8449572265625,-1.39821376953125
4.67063245198634,0.521935961914062,9.81143840332031,-1.47482822265625
4.67281526030881,0.474051928710937,9.84016882324219,-1.50355864257812
4.67499806863129,0.565031591796875,9.81143840332031,-1.52750065917969
4.67718087695377,0.4979939453125,9.82580361328125,-1.47961662597656
4.67936679188433,0.502782348632812,9.82580361328125,-1.47482822265625
4.68155270681489,0.483628735351562,9.85453403320312,-1.48440502929687
4.68373862174545,0.51714755859375,9.79707319335937,-1.44130939941406
4.68599167236396,0.507570751953125,9.83059201660156,-1.39821376953125
4.68824472298247,0.521935961914062,9.83059201660156,-1.46046301269531
4.69049777360098,0.550666381835937,9.82580361328125,-1.47961662597656
4.69274442734176,0.51714755859375,9.85932243652344,-1.42694418945312
4.69499108108254,0.512359155273437,9.84016882324219,-1.49877023925781
4.69723773482332,0.545877978515625,9.83538041992187,-1.52271225585937
4.69945441780674,0.512359155273437,9.82101520996094,-1.43652099609375
4.70167110079016,0.55545478515625,9.81622680664062,-1.43652099609375
4.70388778377358,0.541089575195312,9.82101520996094,-1.4173673828125
4.70615319197671,0.531512768554687,9.80665,-1.48919343261719
4.70841860017984,0.521935961914062,9.80186159667969,-1.49877023925781
4.71068400838297,0.521935961914062,9.83059201660156,-1.51313544921875
4.7129470771764,0.531512768554687,9.83059201660156,-1.46046301269531
4.71521014596983,0.55545478515625,9.79228479003906,-1.43173259277344
4.71747321476326,0.51714755859375,9.77791958007812,-1.45088620605469
4.71973463240646,0.536301171875,9.80186159667969,-1.48440502929687
4.72199605004966,0.541089575195312,9.79228479003906,-1.50355864257812
4.72425746769287,0.560243188476563,9.82101520996094,-1.47961662597656
4.72644190182915,0.51714755859375,9.78270798339844,-1.44609780273437
4.72862633596544,0.560243188476563,9.83059201660156,-1.44130939941406
4.73081077010173,0.565031591796875,9.85453403320312,-1.46525141601562
4.73299277183786,0.531512768554687,9.82101520996094,-1.47961662597656
4.735174773574,0.550666381835937,9.83059201660156,-1.44609780273437
4.73735677531013,0.550666381835937,9.84016882324219,-1.48919343261719
4.73953701945075,0.550666381835937,9.80665,-1.4939818359375
4.74171726359137,0.4979939453125,9.79228479003906,-1.41257897949219
4.74389750773199,0.55545478515625,9.81622680664062,-1.4939818359375
4.74945193451694,0.531512768554687,9.79228479003906,-1.47003981933594
4.75500636130189,0.507570751953125,9.78270798339844,-1.4173673828125
4.76056078808685,0.550666381835937,9.79707319335937,-1.42694418945312
4.76280288048049,0.51714755859375,9.81143840332031,-1.42215578613281
4.76504497287413,0.51714755859375,9.83538041992187,-1.44609780273437
4.76728706526777,0.488417138671875,9.79707319335937,-1.45088620605469
4.76950558637235,0.536301171875,9.83538041992187,-1.42694418945312
4.77172410747694,0.507570751953125,9.78270798339844,-1.44609780273437
4.77394262858152,0.536301171875,9.78749638671875,-1.42694418945312
4.77613544802598,0.507570751953125,9.80186159667969,-1.42694418945312
4.77832826747043,0.526724365234375,9.84016882324219,-1.42215578613281
4.78052108691489,0.512359155273437,9.81143840332031,-1.46046301269531
4.78270991503991,0.526724365234375,9.80186159667969,-1.46046301269531
4.78489874316494,0.541089575195312,9.82580361328125,-1.38863696289062
4.78708757128996,0.536301171875,9.82101520996094,-1.47482822265625
4.78935106803475,0.545877978515625,9.78749638671875,-1.46046301269531
4.79161456477955,0.550666381835937,9.80665,-1.46525141601562
4.79387806152434,0.483628735351562,9.84974562988281,-1.41257897949219
4.796145431316,0.526724365234375,9.83059201660156,-1.43173259277344
4.79841280110765,0.4979939453125,9.78270798339844,-1.46046301269531
4.80068017089931,0.51714755859375,9.82580361328125,-1.45088620605469
4.80292024723395,0.521935961914062,9.82101520996094,-1.455674609375
4.80516032356859,0.51714755859375,9.82580361328125,-1.43173259277344
4.80740039990323,0.51714755859375,9.86889924316406,-1.44609780273437
4.80957072206035,0.521935961914062,9.83059201660156,-1.46046301269531
4.81174104421747,0.531512768554687,9.86889924316406,-1.43652099609375
4.81391136637458,0.4979939453125,9.8449572265625,-1.44130939941406
4.8160396550573,0.512359155273437,9.85453403320312,-1.45088620605469
4.81816794374003,0.488417138671875,9.82580361328125,-1.46046301269531
4.82029623242275,0.4979939453125,9.82580361328125,-1.41257897949219
4.82246941221876,0.474051928710937,9.86411083984375,-1.47482822265625
4.82464259201476,0.493205541992187,9.86411083984375,-1.51313544921875
4.82681577181077,0.47884033203125,9.87368764648437,-1.45088620605469
4.82899254123351,0.493205541992187,9.87847604980469,-1.47961662597656
4.83116931065625,0.483628735351562,9.87847604980469,-1.47482822265625
4.833346080079,0.507570751953125,9.883264453125,-1.50355864257812
4.83551964263327,0.469263525390625,9.84974562988281,-1.51792385253906
4.83769320518755,0.488417138671875,9.85932243652344,-1.47003981933594
4.83986676774182,0.507570751953125,9.84016882324219,-1.49877023925781
4.84203585519842,0.4979939453125,9.86411083984375,-1.52271225585937
4.84420494265501,0.493205541992187,9.84016882324219,-1.44609780273437
4.8463740301116,0.507570751953125,9.90241806640625,-1.46525141601562
4.8485419846472,0.512359155273437,9.90720646972656,-1.47482822265625
4.85070993918279,0.493205541992187,9.88805285644531,-1.46046301269531
4.85287789371839,0.569819995117188,9.88805285644531,-1.4939818359375
4.85510009948825,0.545877978515625,9.86889924316406,-1.50355864257812
4.85732230525811,0.569819995117188,9.86411083984375,-1.50355864257812
4.85954451102798,0.59376201171875,9.85932243652344,-1.48440502929687
4.86174810107518,0.560243188476563,9.883264453125,-1.42694418945312
4.86395169112239,0.59376201171875,9.87847604980469,-1.46525141601562
4.8661552811696,0.598550415039062,9.89284125976562,-1.47482822265625
4.86834584790137,0.588973608398437,9.85932243652344,-1.47003981933594
4.87053641463314,0.603338818359375,9.82580361328125,-1.42215578613281
4.87272698136491,0.565031591796875,9.82101520996094,-1.48919343261719
4.87491667494129,0.55545478515625,9.88805285644531,-1.44130939941406
4.87710636851767,0.536301171875,9.85453403320312,-1.47003981933594
4.87929606209406,0.545877978515625,9.84974562988281,-1.48440502929687
4.88148610452028,0.536301171875,9.84974562988281,-1.54186586914062
4.88367614694651,0.531512768554687,9.80186159667969,-1.50834704589844
4.88586618937273,0.4979939453125,9.8449572265625,-1.48440502929687
4.88811925501945,0.469263525390625,9.88805285644531,-1.49877023925781
4.89037232066617,0.521935961914062,9.883264453125,-1.47482822265625
4.89262538631289,0.512359155273437,9.85932243652344,-1.50355864257812
4.89487786873476,0.51714755859375,9.84974562988281,-1.455674609375
4.89713035115663,0.488417138671875,9.84016882324219,-1.51792385253906
4.8993828335785,0.4979939453125,9.83538041992187,-1.55144267578125
4.90157089076166,0.483628735351562,9.83538041992187,-1.50834704589844
4.90375894794482,0.488417138671875,9.88805285644531,-1.54665427246094
4.90594700512798,0.4979939453125,9.84974562988281,-1.47961662597656
4.90813390378247,0.45968671875,9.81143840332031,-1.5322890625
4.91032080243696,0.493205541992187,9.883264453125,-1.43173259277344
4.91250770109144,0.44053310546875,9.81143840332031,-1.50834704589844
4.91470621400377,0.502782348632812,9.81622680664062,-1.52750065917969
4.91690472691609,0.4979939453125,9.81622680664062,-1.52271225585937
4.91910323982842,0.488417138671875,9.77791958007812,-1.50355864257812
4.92134680308798,0.521935961914062,9.80186159667969,-1.54665427246094
4.92359036634754,0.531512768554687,9.83059201660156,-1.52271225585937
4.92583392960711,0.526724365234375,9.84974562988281,-1.51313544921875
4.92807800990225,0.526724365234375,9.78749638671875,-1.48440502929687
4.93032209019738,0.550666381835937,9.80186159667969,-1.53707746582031
4.93256617049252,0.531512768554687,9.82101520996094,-1.52750065917969
4.9346863296722,0.560243188476563,9.79707319335937,-1.455674609375
4.93680648885188,0.526724365234375,9.80665,-1.52750065917969
4.93892664803155,0.550666381835937,9.79707319335937,-1.4939818359375
4.94104328116958,0.5746083984375,9.84016882324219,-1.49877023925781
4.94315991430761,0.608127221679687,9.81143840332031,-1.51313544921875
4.94527654744564,0.579396801757812,9.7683427734375,-1.50834704589844
4.94739335690745,0.584185205078125,9.84974562988281,-1.52271225585937
4.94951016636926,0.612915625,9.80186159667969,-1.47961662597656
4.95162697583106,0.579396801757812,9.80665,-1.4173673828125
4.95374119132587,0.550666381835937,9.79228479003906,-1.47961662597656
4.95585540682068,0.560243188476563,9.78749638671875,-1.43173259277344
4.95796962231549,0.588973608398437,9.77313117675781,-1.44609780273437
4.9600827021766,0.579396801757812,9.82101520996094,-1.44130939941406
4.96219578203771,0.588973608398437,9.79228479003906,-1.47003981933594
4.96430886189881,0.569819995117188,9.80186159667969,-1.48440502929687
4.96642020250209,0.588973608398437,9.77313117675781,-1.44130939941406
4.96853154310537,0.512359155273437,9.75397756347656,-1.47003981933594
4.97064288370865,0.59376201171875,9.79228479003906,-1.46046301269531
4.97276833023642,0.536301171875,9.80665,-1.42694418945312
4.97489377676418,0.55545478515625,9.78749638671875,-1.45088620605469
4.97701922329195,0.545877978515625,9.78749638671875,-1.46046301269531
4.98026071277219,0.483628735351562,9.78749638671875,-1.49877023925781
4.98350220225243,0.521935961914062,9.83059201660156,-1.44609780273437
4.98674369173267,0.4979939453125,9.76355437011719,-1.48440502929687
4.98891597753997,0.502782348632812,9.83059201660156,-1.48440502929687
4.99108826334727,0.526724365234375,9.78749638671875,-1.53707746582031
4.99326054915457,0.483628735351562,9.80186159667969,-1.455674609375
4.99541891449744,0.536301171875,9.85453403320312,-1.47003981933594
4.99757727984032,0.51714755859375,9.81622680664062,-1.47482822265625
4.99973564518319,0.493205541992187,9.85453403320312,-1.47003981933594
5.00187991666758,0.4979939453125,9.79228479003906,-1.43652099609375
5.00402418815196,0.483628735351562,9.81622680664062,-1.46525141601562
5.00616845963634,0.47884033203125,9.80665,-1.44609780273437
5.00831033572141,0.521935961914062,9.81622680664062,-1.50834704589844
5.01045221180649,0.502782348632812,9.82580361328125,-1.44609780273437
5.01259408789156,0.550666381835937,9.80186159667969,-1.47961662597656
5.01485638693669,0.545877978515625,9.84016882324219,-1.44130939941406
5.01711868598181,0.541089575195312,9.81622680664062,-1.42215578613281
5.01938098502694,0.507570751953125,9.80186159667969,-1.50355864257812
5.02164394737505,0.454898315429687,9.81143840332031,-1.46046301269531
5.02390690972315,0.493205541992187,9.81143840332031,-1.47482822265625
5.02616987207125,0.531512768554687,9.83059201660156,-1.51792385253906
5.02843293028521,0.521935961914062,9.83059201660156,-1.47961662597656
5.03069598849917,0.47884033203125,9.86411083984375,-1.47961662597656
5.03295904671313,0.55545478515625,9.86411083984375,-1.48919343261719
5.03518357926521,0.51714755859375,9.81622680664062,-1.48919343261719
5.03740811181729,0.4979939453125,9.77791958007812,-1.50834704589844
5.03963264436936,0.526724365234375,9.82101520996094,-1.44609780273437
5.04181759933899,0.531512768554687,9.84016882324219,-1.4939818359375
5.04400255430861,0.55545478515625,9.83538041992187,-1.50355864257812
5.04618750927824,0.521935961914062,9.87368764648437,-1.51792385253906
5.0483702430022,0.588973608398437,9.84974562988281,-1.51792385253906
5.05055297672616,0.55545478515625,9.81622680664062,-1.53707746582031
5.05273571045012,0.550666381835937,9.883264453125,-1.50355864257812
5.05491616693882,0.545877978515625,9.883264453125,-1.51792385253906
5.05709662342753,0.584185205078125,9.84016882324219,-1.50355864257812
5.05927707991623,0.560243188476563,9.87368764648437,-1.47482822265625
5.0648454872784,0.560243188476563,9.80665,-1.44609780273437
5.07041389464056,0.617704028320312,9.83059201660156,-1.49877023925781
5.07598230200273,0.617704028320312,9.8449572265625,-1.47961662597656
5.07823843709387,0.565031591796875,9.82580361328125,-1.50355864257812
5.08049457218501,0.569819995117188,9.84974562988281,-1.46046301269531
5.08275070727615,0.5746083984375,9.83059201660156,-1.47961662597656
5.08500482109993,0.541089575195312,9.84016882324219,-1.44609780273437
5.08725893492372,0.531512768554687,9.81622680664062,-1.47482822265625
5.08951304874751,0.536301171875,9.83538041992187,-1.47961662597656
5.09176672800097,0.565031591796875,9.83059201660156,-1.40300217285156
5.09402040725443,0.569819995117188,9.84016882324219,-1.45088620605469
5.09627408650789,0.521935961914062,9.84016882324219,-1.43173259277344
5.09848807392111,0.521935961914062,9.82101520996094,-1.48919343261719
5.10070206133433,0.550666381835937,9.86889924316406,-1.46046301269531
5.10291604874755,0.521935961914062,9.84016882324219,-1.48919343261719
5.10512774058784,0.502782348632812,9.84016882324219,-1.39821376953125
5.10733943242813,0.507570751953125,9.80665,-1.43173259277344
5.10955112426842,0.493205541992187,9.83538041992187,-1.4939818359375
5.11175980243682,0.488417138671875,9.85453403320312,-1.44130939941406
5.11396848060521,0.493205541992187,9.8449572265625,-1.42694418945312
5.11617715877361,0.4979939453125,9.80186159667969,-1.50834704589844
5.1217182871373,0.531512768554687,9.86411083984375,-1.47482822265625
5.12725941550099,0.536301171875,9.84016882324219,-1.44609780273437
5.13280054386468,0.531512768554687,9.83538041992187,-1.46525141601562
5.13498890779696,0.541089575195312,9.85453403320312,-1.47961662597656
5.13717727172925,0.55545478515625,9.83538041992187,-1.40779057617187
5.13936563566153,0.584185205078125,9.82580361328125,-1.455674609375
5.14155489993019,0.488417138671875,9.79228479003906,-1.40300217285156
5.14374416419885,0.536301171875,9.82101520996094,-1.45088620605469
5.14593342846752,0.55545478515625,9.82101520996094,-1.45088620605469
5.14812218242802,0.5746083984375,9.84016882324219,-1.51792385253906
5.15031093638853,0.550666381835937,9.81143840332031,-1.47003981933594
5.15249969034903,0.531512768554687,9.83059201660156,-1.48440502929687
5.15468552753435,0.531512768554687,9.7683427734375,-1.455674609375
5.15687136471968,0.51714755859375,9.80665,-1.4939818359375
5.159057201905,0.541089575195312,9.86411083984375,-1.44130939941406
5.16127178469579,0.507570751953125,9.82580361328125,-1.39821376953125
5.16348636748658,0.526724365234375,9.79228479003906,-1.47961662597656
5.16570095027737,0.560243188476563,9.82101520996094,-1.51792385253906
5.16789109252998,0.526724365234375,9.81622680664062,-1.47003981933594
5.17008123478259,0.526724365234375,9.78749638671875,-1.44609780273437
5.1722713770352,0.521935961914062,9.7683427734375,-1.46046301269531
5.17447465665759,0.545877978515625,9.80665,-1.44130939941406
5.17667793627999,0.507570751953125,9.81622680664062,-1.47961662597656
5.17888121590238,0.536301171875,9.80665,-1.47482822265625
5.18108646698746,0.541089575195312,9.84974562988281,-1.48440502929687
5.18329171807253,0.483628735351562,9.80186159667969,-1.50834704589844
5.18549696915761,0.507570751953125,9.85453403320312,-1.54186586914062
5.18770135761249,0.512359155273437,9.86411083984375,-1.50355864257812
5.18990574606736,0.51714755859375,9.80186159667969,-1.51792385253906
5.19211013452224,0.545877978515625,9.81622680664062,-1.49877023925781
5.19432220977179,0.4979939453125,9.83059201660156,-1.48919343261719
5.19653428502134,0.526724365234375,9.84016882324219,-1.46046301269531
5.19874636027089,0.502782348632812,9.84974562988281,-1.46046301269531
5.20092781138853,0.512359155273437,9.83059201660156,-1.46046301269531
5.20310926250617,0.512359155273437,9.79707319335937,-1.53707746582031
5.20529071362381,0.55545478515625,9.82101520996094,-1.4939818359375
5.20747146237598,0.51714755859375,9.79228479003906,-1.47003981933594
5.20965221112815,0.507570751953125,9.79228479003906,-1.45088620605469
5.21183295988033,0.541089575195312,9.81622680664062,-1.42694418945312
5.21401310034256,0.507570751953125,9.79707319335937,-1.52271225585937
5.2161932408048,0.541089575195312,9.79707319335937,-1.46525141601562
5.21837338126704,0.545877978515625,9.81143840332031,-1.48919343261719
5.22055479945279,0.526724365234375,9.81143840332031,-1.51313544921875
5.22273621763854,0.521935961914062,9.85932243652344,-1.47003981933594
5.22491763582428,0.51714755859375,9.81622680664062,-1.4939818359375
5.22712159437466,0.512359155273437,9.8449572265625,-1.47961662597656
5.22932555292503,0.507570751953125,9.85453403320312,-1.42694418945312
5.2315295114754,0.531512768554687,9.83059201660156,-1.47003981933594
5.23370074921413,0.521935961914062,9.83538041992187,-1.52750065917969
5.23587198695285,0.512359155273437,9.81143840332031,-1.46525141601562
5.23804322469158,0.4979939453125,9.8449572265625,-1.48919343261719
5.24021197496285,0.51714755859375,9.82580361328125,-1.47961662597656
5.24238072523411,0.521935961914062,9.79707319335937,-1.48440502929687
5.24454947550538,0.4979939453125,9.83538041992187,-1.46525141601562
5.24671623814642,0.526724365234375,9.84974562988281,-1.51313544921875
5.24888300078747,0.51714755859375,9.81143840332031,-1.45088620605469
5.25104976342851,0.51714755859375,9.83059201660156,-1.50355864257812
5.25321455607173,0.550666381835937,9.84016882324219,-1.54186586914062
5.25537934871494,0.521935961914062,9.81143840332031,-1.50834704589844
5.25754414135815,0.51714755859375,9.87368764648437,-1.43652099609375
5.2597551160218,0.531512768554687,9.82101520996094,-1.56580788574219
5.26196609068544,0.55545478515625,9.86411083984375,-1.47482822265625
5.26417706534909,0.55545478515625,9.83538041992187,-1.47961662597656
5.26636775963078,0.531512768554687,9.79707319335937,-1.46525141601562
5.26855845391248,0.541089575195312,9.79707319335937,-1.47961662597656
5.27074914819417,0.502782348632812,9.82580361328125,-1.47961662597656
5.27293008829834,0.545877978515625,9.84016882324219,-1.47961662597656
5.27511102840252,0.584185205078125,9.83059201660156,-1.51313544921875
5.27729196850669,0.560243188476563,9.82101520996094,-1.46046301269531
5.27946366143205,0.565031591796875,9.83538041992187,-1.48919343261719
5.28163535435742,0.560243188476563,9.80665,-1.48440502929687
5.28380704728278,0.51714755859375,9.82101520996094,-1.54665427246094
5.28597660104799,0.565031591796875,9.83538041992187,-1.47482822265625
5.28814615481321,0.526724365234375,9.81622680664062,-1.44609780273437
5.29031570857842,0.502782348632812,9.84016882324219,-1.47482822265625
5.2925264190819,0.569819995117188,9.81622680664062,-1.44609780273437
5.29473712958539,0.565031591796875,9.81622680664062,-1.4939818359375
5.29694784008888,0.521935961914062,9.84016882324219,-1.455674609375
5.29914192770826,0.521935961914062,9.81143840332031,-1.50834704589844
5.30133601532765,0.550666381835937,9.83538041992187,-1.46525141601562
5.30353010294704,0.502782348632812,9.78749638671875,-1.50355864257812
5.30572263821182,0.536301171875,9.82101520996094,-1.46525141601562
5.3079151734766,0.545877978515625,9.82580361328125,-1.48440502929687
5.31010770874138,0.55545478515625,9.8449572265625,-1.40779057617187
5.31229799026266,0.526724365234375,9.83538041992187,-1.45088620605469
5.31448827178394,0.502782348632812,9.80665,-1.46046301269531
5.31667855330522,0.526724365234375,9.78749638671875,-1.455674609375
5.31885987882608,0.536301171875,9.82101520996094,-1.47482822265625
5.32104120434694,0.550666381835937,9.80665,-1.51792385253906
5.32322252986779,0.526724365234375,9.82101520996094,-1.47961662597656
5.3254337963066,0.51714755859375,9.84974562988281,-1.49877023925781
5.32764506274541,0.507570751953125,9.82101520996094,-1.47003981933594
5.32985632918422,0.507570751953125,9.80665,-1.46046301269531
5.33201247311869,0.536301171875,9.84016882324219,-1.4939818359375
5.33416861705316,0.541089575195312,9.83059201660156,-1.56580788574219
5.33632476098762,0.55545478515625,9.85932243652344,-1.49877023925781
5.33841574123935,0.541089575195312,9.84974562988281,-1.54186586914062
5.34050672149109,0.526724365234375,9.85932243652344,-1.46525141601562
5.34259770174282,0.550666381835937,9.86411083984375,-1.50355864257812
5.34465018275411,0.507570751953125,9.86889924316406,-1.455674609375
5.34670266376541,0.550666381835937,9.8449572265625,-1.47961662597656
5.3487551447767,0.550666381835937,9.82580361328125,-1.43652099609375
5.35080513973113,0.565031591796875,9.80665,-1.47961662597656
5.35285513468555,0.531512768554687,9.80665,-1.46046301269531
5.35490512963997,0.51714755859375,9.82580361328125,-1.47961662597656
5.3570023416083,0.531512768554687,9.82580361328125,-1.47482822265625
5.35909955357662,0.5746083984375,9.81622680664062,-1.43652099609375
5.36119676554495,0.55545478515625,9.81143840332031,-1.44609780273437
5.36322330091823,0.512359155273437,9.83538041992187,-1.43173259277344
5.36524983629151,0.483628735351562,9.79707319335937,-1.46046301269531
5.36727637166479,0.550666381835937,9.80665,-1.38384855957031
5.36923251247967,0.521935961914062,9.81622680664062,-1.47961662597656
5.37118865329456,0.541089575195312,9.82580361328125,-1.51313544921875
5.37314479410945,0.536301171875,9.83059201660156,-1.48919343261719
5.37509941278895,0.536301171875,9.82101520996094,-1.50834704589844
5.37705403146844,0.545877978515625,9.81622680664062,-1.55144267578125
5.37900865014794,0.526724365234375,9.80665,-1.51792385253906
5.38096256073823,0.51714755859375,9.83538041992187,-1.55623107910156
5.38291647132853,0.526724365234375,9.79707319335937,-1.50355864257812
5.38487038191883,0.493205541992187,9.78749638671875,-1.51313544921875
5.38698208495702,0.469263525390625,9.83059201660156,-1.49877023925781
5.38909378799522,0.521935961914062,9.84016882324219,-1.48919343261719
5.39120549103341,0.531512768554687,9.84974562988281,-1.54186586914062
5.39332034322527,0.55545478515625,9.84016882324219,-1.51313544921875
5.39543519541712,0.536301171875,9.80665,-1.4939818359375
5.39755004760897,0.536301171875,9.80186159667969,-1.50834704589844
5.3996680779909,0.507570751953125,9.84016882324219,-1.48440502929687
5.40178610837284,0.541089575195312,9.85453403320312,-1.47961662597656
5.40390413875477,0.493205541992187,9.8449572265625,-1.4939818359375
5.40602073066017,0.512359155273437,9.8449572265625,-1.48919343261719
5.40813732256558,0.565031591796875,9.85453403320312,-1.52750065917969
5.41025391447099,0.531512768554687,9.86889924316406,-1.52750065917969
5.41235004750052,0.51714755859375,9.85453403320312,-1.47003981933594
5.41444618053005,0.565031591796875,9.87368764648437,-1.52750065917969
5.41654231355957,0.526724365234375,9.82580361328125,-1.52271225585937
5.41863612779568,0.526724365234375,9.82101520996094,-1.47961662597656
5.42072994203178,0.531512768554687,9.83538041992187,-1.58017309570312
5.42282375626789,0.545877978515625,9.84016882324219,-1.48440502929687
5.42491650830238,0.51714755859375,9.86889924316406,-1.47003981933594
5.42700926033688,0.531512768554687,9.85932243652344,-1.48440502929687
5.42910201237137,0.507570751953125,9.81622680664062,-1.55623107910156
5.43430525819382,0.512359155273437,9.81622680664062,-1.48440502929687
5.43950850401627,0.55545478515625,9.81143840332031,-1.4939818359375
5.44471174983872,0.536301171875,9.80665,-1.42215578613281
5.44674728955225,0.541089575195312,9.81143840332031,-1.48919343261719
5.44878282926579,0.541089575195312,9.84016882324219,-1.50834704589844
5.45081836897933,0.526724365234375,9.84016882324219,-1.47003981933594
5.45285516064601,0.512359155273437,9.83059201660156,-1.455674609375
5.45489195231269,0.526724365234375,9.82580361328125,-1.48440502929687
5.45692874397938,0.47884033203125,9.83538041992187,-1.50834704589844
5.45896641986912,0.560243188476563,9.80665,-1.47003981933594
5.46100409575887,0.531512768554687,9.83538041992187,-1.46046301269531
5.46304177164862,0.531512768554687,9.83538041992187,-1.5322890625
5.46507942041166,0.536301171875,9.86889924316406,-1.47482822265625
5.46711706917471,0.502782348632812,9.83538041992187,-1.51313544921875
5.46915471793776,0.526724365234375,9.8449572265625,-1.52271225585937
5.47132810910526,0.51714755859375,9.86411083984375,-1.44609780273437
5.47350150027276,0.55545478515625,9.86411083984375,-1.46525141601562
5.47567489144026,0.536301171875,9.883264453125,-1.50834704589844
5.47785110715206,0.512359155273437,9.87847604980469,-1.47961662597656
5.48002732286385,0.541089575195312,9.89762966308594,-1.46046301269531
5.48220353857565,0.536301171875,9.89284125976562,-1.44130939941406
5.48445300515549,0.59376201171875,9.85453403320312,-1.47482822265625
5.48670247173534,0.560243188476563,9.85453403320312,-1.42694418945312
5.48895193831518,0.541089575195312,9.83538041992187,-1.47482822265625
5.49126728956573,0.526724365234375,9.85453403320312,-1.455674609375
5.49358264081627,0.526724365234375,9.86411083984375,-1.48919343261719
5.49589799206682,0.541089575195312,9.8449572265625,-1.49877023925781
5.49818701231693,0.507570751953125,9.87847604980469,-1.52750065917969
5.50047603256704,0.502782348632812,9.84974562988281,-1.455674609375
5.50276505281715,0.541089575195312,9.86411083984375,-1.52271225585937
5.50504967016743,0.4979939453125,9.85453403320312,-1.47482822265625
5.5073342875177,0.526724365234375,9.91678327636719,-1.43173259277344
5.50961890486798,0.51714755859375,9.90241806640625,-1.54665427246094
5.51190170971823,0.51714755859375,9.86889924316406,-1.47961662597656
5.51418451456847,0.469263525390625,9.89284125976562,-1.51792385253906
5.51646731941872,0.45968671875,9.87368764648437,-1.53707746582031
5.52202984179825,0.450109912109375,9.82101520996094,-1.45088620605469
5.52759236417777,0.445321508789062,9.81622680664062,-1.43173259277344
5.5331548865573,0.464475122070312,9.84016882324219,-1.44130939941406
5.53963390294178,0.560243188476563,9.79707319335937,-1.52271225585937
5.54611291932627,0.560243188476563,9.80186159667969,-1.46525141601562
5.55259193571075,0.59376201171875,9.79707319335937,-1.45088620605469
5.55908239263345,0.541089575195312,9.80186159667969,-1.50834704589844
5.56557284955614,0.541089575195312,9.81143840332031,-1.44609780273437
5.57206330647884,0.569819995117188,9.83059201660156,-1.58017309570312
5.5742453821082,0.521935961914062,9.79707319335937,-1.4939818359375
5.57642745773756,0.488417138671875,9.81143840332031,-1.45088620605469
5.57860953336692,0.512359155273437,9.78270798339844,-1.51313544921875
5.58077216467388,0.493205541992187,9.80186159667969,-1.49877023925781
5.58293479598085,0.488417138671875,9.81622680664062,-1.49877023925781
5.58509742728782,0.507570751953125,9.78749638671875,-1.51313544921875
5.58722916867507,0.469263525390625,9.76355437011719,-1.47003981933594
5.58936091006231,0.474051928710937,9.79228479003906,-1.50834704589844
5.59149265144956,0.507570751953125,9.80665,-1.56580788574219
5.5936170491275,0.502782348632812,9.79228479003906,-1.4939818359375
5.59574144680544,0.512359155273437,9.77313117675781,-1.47003981933594
5.59786584448338,0.483628735351562,9.77791958007812,-1.47961662597656
5.60005089965918,0.488417138671875,9.79707319335937,-1.47482822265625
5.60223595483498,0.464475122070312,9.80665,-1.47003981933594
5.60442101001078,0.47884033203125,9.79707319335937,-1.46525141601562
5.60661000561626,0.493205541992187,9.80186159667969,-1.47482822265625
5.60879900122174,0.47884033203125,9.83538041992187,-1.50355864257812
5.61098799682722,0.474051928710937,9.81143840332031,-1.47003981933594
5.61319652851124,0.488417138671875,9.81622680664062,-1.46046301269531
5.61540506019527,0.4979939453125,9.83059201660156,-1.4939818359375
5.61761359187929,0.47884033203125,9.78749638671875,-1.52750065917969
5.61978552417093,0.47884033203125,9.80186159667969,-1.48919343261719
5.62195745646256,0.47884033203125,9.80665,-1.51313544921875
5.6241293887542,0.45968671875,9.82580361328125,-1.50355864257812
5.62626228458755,0.4979939453125,9.85932243652344,-1.49877023925781
5.6283951804209,0.531512768554687,9.83059201660156,-1.44130939941406
5.63052807625425,0.474051928710937,9.83059201660156,-1.44609780273437
5.63278108976339,0.464475122070312,9.83538041992187,-1.48440502929687
5.63503410327253,0.502782348632812,9.84974562988281,-1.49877023925781
5.63728711678166,0.47884033203125,9.80186159667969,-1.5322890625
5.63954188023654,0.507570751953125,9.81622680664062,-1.47482822265625
5.64179664369142,0.526724365234375,9.84974562988281,-1.4939818359375
5.64405140714629,0.565031591796875,9.80665,-1.42215578613281
5.64630622686202,0.531512768554687,9.82101520996094,-1.50355864257812
5.64856104657774,0.521935961914062,9.81143840332031,-1.4939818359375
5.65081586629347,0.55545478515625,9.8449572265625,-1.47961662597656
5.65304795016934,0.545877978515625,9.83538041992187,-1.49877023925781
5.65528003404521,0.521935961914062,9.83538041992187,-1.49877023925781
5.65751211792107,0.5746083984375,9.80665,-1.47961662597656
5.65971900708124,0.512359155273437,9.82101520996094,-1.47482822265625
5.6619258962414,0.545877978515625,9.83059201660156,-1.48919343261719
5.66413278540156,0.541089575195312,9.8449572265625,-1.51792385253906
5.6663359838065,0.5746083984375,9.8449572265625,-1.40300217285156
5.66853918221143,0.541089575195312,9.81143840332031,-1.46525141601562
5.67074238061636,0.560243188476563,9.85453403320312,-1.49877023925781
5.67294236846358,0.526724365234375,9.87847604980469,-1.45088620605469
5.67514235631079,0.545877978515625,9.83538041992187,-1.42694418945312
5.67734234415801,0.55545478515625,9.8449572265625,-1.42215578613281
5.68286476936964,0.483628735351562,9.84974562988281,-1.51313544921875
5.68838719458126,0.454898315429687,9.85932243652344,-1.45088620605469
5.69390961979289,0.474051928710937,9.83059201660156,-1.51313544921875
5.69609955197604,0.44053310546875,9.85932243652344,-1.47482822265625
5.69828948415919,0.493205541992187,9.83059201660156,-1.52271225585937
5.70047941634235,0.474051928710937,9.85453403320312,-1.47482822265625
5.7026686356349,0.454898315429687,9.86889924316406,-1.47482822265625
5.70485785492746,0.464475122070312,9.84974562988281,-1.49877023925781
5.70704707422001,0.474051928710937,9.85453403320312,-1.51792385253906
5.70923472623822,0.44053310546875,9.84016882324219,-1.51313544921875
5.71142237825642,0.435744702148437,9.87847604980469,-1.51792385253906
5.71361003027462,0.4213794921875,9.86889924316406,-1.4939818359375
5.71579727658535,0.469263525390625,9.8449572265625,-1.51792385253906
5.71798452289608,0.411802685546875,9.82580361328125,-1.50355864257812
5.72017176920681,0.4213794921875,9.80665,-1.46525141601562
5.72235991113389,0.454898315429687,9.87368764648437,-1.51313544921875
5.72454805306096,0.411802685546875,9.84974562988281,-1.47003981933594
5.72673619498804,0.435744702148437,9.86889924316406,-1.43652099609375
5.72892496224062,0.483628735351562,9.87368764648437,-1.48919343261719
5.7311137294932,0.45968671875,9.80186159667969,-1.50355864257812
5.73330249674578,0.483628735351562,9.86411083984375,-1.42694418945312
5.73549297254873,0.47884033203125,9.84016882324219,-1.51792385253906
5.73768344835168,0.521935961914062,9.84974562988281,-1.4939818359375
5.73987392415464,0.445321508789062,9.82101520996094,-1.4939818359375
5.74206430479701,0.483628735351562,9.81143840332031,-1.49877023925781
5.74425468543938,0.488417138671875,9.86411083984375,-1.50834704589844
5.74644506608175,0.474051928710937,9.81143840332031,-1.49877023925781
5.74862205479704,0.4979939453125,9.82101520996094,-1.50834704589844
5.75079904351233,0.507570751953125,9.86411083984375,-1.49877023925781
5.75297603222762,0.507570751953125,9.83059201660156,-1.50834704589844
5.75516388389863,0.445321508789062,9.84974562988281,-1.54186586914062
5.75735173556964,0.493205541992187,9.81143840332031,-1.52750065917969
5.75953958724065,0.47884033203125,9.80665,-1.48919343261719
5.7617275176877,0.493205541992187,9.80665,-1.55144267578125
5.76391544813474,0.474051928710937,9.84016882324219,-1.47482822265625
5.76610337858179,0.464475122070312,9.82101520996094,-1.51313544921875
5.7682058020844,0.464475122070312,9.83538041992187,-1.56101948242187
5.770308225587,0.47884033203125,9.80186159667969,-1.54186586914062
5.77241064908961,0.483628735351562,9.82580361328125,-1.58974990234375
5.7745109503049,0.521935961914062,9.83538041992187,-1.5322890625
5.77661125152018,0.47884033203125,9.82580361328125,-1.51313544921875
5.77871155273547,0.483628735351562,9.79228479003906,-1.52750065917969
5.78081008626413,0.450109912109375,9.82580361328125,-1.52750065917969
5.7829086197928,0.44053310546875,9.82580361328125,-1.55144267578125
5.78500715332146,0.483628735351562,9.83059201660156,-1.55144267578125
5.78716961317388,0.450109912109375,9.85932243652344,-1.54665427246094
5.7893320730263,0.4979939453125,9.79707319335937,-1.52750065917969
5.79149453287872,0.469263525390625,9.81622680664062,-1.49877023925781
5.79365586892469,0.464475122070312,9.80665,-1.4939818359375
5.79581720497067,0.4979939453125,9.77791958007812,-1.47003981933594
5.79797854101665,0.464475122070312,9.80186159667969,-1.48440502929687
5.80013834060434,0.454898315429687,9.78749638671875,-1.48440502929687
5.80229814019203,0.464475122070312,9.82101520996094,-1.47482822265625
5.80445793977972,0.411802685546875,9.77791958007812,-1.50355864257812
5.80660454785265,0.483628735351562,9.82580361328125,-1.52271225585937
5.80875115592557,0.47884033203125,9.84974562988281,-1.4939818359375
5.8108977639985,0.483628735351562,9.82580361328125,-1.50834704589844
5.81301264949653,0.47884033203125,9.80186159667969,-1.54186586914062
5.81512753499456,0.450109912109375,9.81622680664062,-1.47961662597656
5.81724242049259,0.474051928710937,9.81143840332031,-1.43173259277344
5.81941170684239,0.454898315429687,9.82101520996094,-1.47961662597656
5.8215809931922,0.488417138671875,9.86411083984375,-1.5322890625
5.823750279542,0.47884033203125,9.83538041992187,-1.46525141601562
5.82591590861101,0.488417138671875,9.8449572265625,-1.47003981933594
5.82808153768003,0.474051928710937,9.81143840332031,-1.49877023925781
5.83024716674905,0.45968671875,9.82580361328125,-1.50834704589844
5.8324113820811,0.4979939453125,9.8449572265625,-1.48440502929687
5.83457559741315,0.474051928710937,9.80665,-1.48440502929687
5.83673981274521,0.47884033203125,9.82580361328125,-1.47482822265625
5.83890243324217,0.450109912109375,9.87847604980469,-1.43652099609375
5.84106505373913,0.464475122070312,9.84974562988281,-1.48919343261719
5.84322767423609,0.507570751953125,9.82580361328125,-1.50834704589844
5.84532890182939,0.526724365234375,9.80665,-1.47482822265625
5.84743012942269,0.47884033203125,9.85453403320312,-1.51792385253906
5.84953135701599,0.47884033203125,9.88805285644531,-1.40779057617187
5.85164034008891,0.536301171875,9.87847604980469,-1.4939818359375
5.85374932316183,0.4979939453125,9.88805285644531,-1.44130939941406
5.85585830623475,0.47884033203125,9.82580361328125,-1.48919343261719
5.85796998836367,0.469263525390625,9.80186159667969,-1.43652099609375
5.86008167049259,0.526724365234375,9.8449572265625,-1.51313544921875
5.86219335262152,0.47884033203125,9.85453403320312,-1.55144267578125
5.86430538875433,0.483628735351562,9.80186159667969,-1.49877023925781
5.86641742488715,0.4979939453125,9.85932243652344,-1.47482822265625
5.86852946101996,0.526724365234375,9.87847604980469,-1.47482822265625
5.87064125865452,0.4979939453125,9.82580361328125,-1.54665427246094
5.87275305628908,0.469263525390625,9.83059201660156,-1.455674609375
5.87486485392364,0.450109912109375,9.81622680664062,-1.52750065917969
5.87697646839845,0.474051928710937,9.85453403320312,-1.49877023925781
5.87908808287327,0.464475122070312,9.80665,-1.5322890625
5.88119969734808,0.47884033203125,9.81622680664062,-1.48440502929687
5.88337505314235,0.445321508789062,9.82101520996094,-1.53707746582031
5.88555040893663,0.488417138671875,9.8449572265625,-1.49877023925781
5.8877257647309,0.435744702148437,9.83059201660156,-1.455674609375
5.88988645479437,0.454898315429687,9.83538041992187,-1.47003981933594
5.89204714485784,0.464475122070312,9.84016882324219,-1.455674609375
5.8942078349213,0.488417138671875,9.83538041992187,-1.48440502929687
5.89629686282115,0.526724365234375,9.84016882324219,-1.46525141601562
5.89838589072101,0.474051928710937,9.84016882324219,-1.50834704589844
5.90047491862086,0.488417138671875,9.85453403320312,-1.48440502929687
5.90250991721029,0.464475122070312,9.86889924316406,-1.47961662597656
5.90454491579971,0.45968671875,9.86411083984375,-1.42694418945312
5.90657991438914,0.47884033203125,9.86889924316406,-1.54186586914062
5.90861240245339,0.454898315429687,9.85932243652344,-1.51313544921875
5.91064489051764,0.483628735351562,9.81622680664062,-1.51792385253906
5.91267737858189,0.469263525390625,9.80665,-1.54186586914062
5.91476727452375,0.469263525390625,9.83059201660156,-1.50834704589844
5.91685717046561,0.454898315429687,9.8449572265625,-1.46046301269531
5.91894706640747,0.450109912109375,9.82580361328125,-1.4939818359375
5.92103624739706,0.45968671875,9.8449572265625,-1.52750065917969
5.92312542838665,0.47884033203125,9.84016882324219,-1.48919343261719
5.92521460937624,0.450109912109375,9.81143840332031,-1.52271225585937
5.92730223394221,0.464475122070312,9.8449572265625,-1.54665427246094
5.92938985850817,0.488417138671875,9.8449572265625,-1.54665427246094
5.93147748307413,0.474051928710937,9.85453403320312,-1.47961662597656
5.93356313932413,0.450109912109375,9.82580361328125,-1.47482822265625
5.93564879557413,0.445321508789062,9.87368764648437,-1.47482822265625
5.93773445182413,0.450109912109375,9.81143840332031,-1.49877023925781
5.93980767816961,0.483628735351562,9.83538041992187,-1.52271225585937
5.9418809045151,0.430956298828125,9.8449572265625,-1.50355864257812
5.94395413086059,0.454898315429687,9.82101520996094,-1.50834704589844
5.94608370217678,0.435744702148437,9.85453403320312,-1.5322890625
5.94821327349298,0.445321508789062,9.85453403320312,-1.52271225585937
5.95034284480917,0.483628735351562,9.81143840332031,-1.4939818359375
5.95246628548298,0.45968671875,9.83538041992187,-1.51313544921875
5.9545897261568,0.45968671875,9.81622680664062,-1.47961662597656
5.95671316683061,0.430956298828125,9.84016882324219,-1.53707746582031
5.95883318999685,0.474051928710937,9.8449572265625,-1.52271225585937
5.96095321316309,0.469263525390625,9.79228479003906,-1.51313544921875
5.96307323632934,0.493205541992187,9.81622680664062,-1.51792385253906
5.96518985248604,0.469263525390625,9.83059201660156,-1.57538469238281
5.96730646864274,0.454898315429687,9.80665,-1.48440502929687
5.96942308479944,0.469263525390625,9.80665,-1.50355864257812
5.97153890570874,0.483628735351562,9.83538041992187,-1.55623107910156
5.97365472661804,0.488417138671875,9.82580361328125,-1.47961662597656
5.97577054752733,0.488417138671875,9.81143840332031,-1.52271225585937
5.97794165630557,0.464475122070312,9.84974562988281,-1.48919343261719
5.9801127650838,0.445321508789062,9.81622680664062,-1.50355864257812
5.98228387386203,0.450109912109375,9.80665,-1.5322890625
5.98442774810249,0.464475122070312,9.80186159667969,-1.50355864257812
5.98657162234295,0.464475122070312,9.80665,-1.47961662597656
5.98871549658341,0.502782348632812,9.79707319335937,-1.51313544921875
5.99082746153564,0.450109912109375,9.82101520996094,-1.54186586914062
5.99293942648788,0.47884033203125,9.77791958007812,-1.42694418945312
5.99505139144011,0.474051928710937,9.82101520996094,-1.53707746582031
5.99715280848656,0.445321508789062,9.79707319335937,-1.45088620605469
5.99925422553301,0.426167895507812,9.80186159667969,-1.49877023925781
6.00135564257945,0.44053310546875,9.79228479003906,-1.47003981933594
6.00344648519012,0.474051928710937,9.78749638671875,-1.50355864257812
6.00553732780078,0.483628735351562,9.82101520996094,-1.47961662597656
6.00762817041144,0.44053310546875,9.78270798339844,-1.49877023925781
6.00971563020959,0.474051928710937,9.85453403320312,-1.53707746582031
6.01180309000774,0.483628735351562,9.82580361328125,-1.5322890625
6.01389054980589,0.483628735351562,9.81143840332031,-1.56580788574219
6.01602197661794,0.469263525390625,9.85453403320312,-1.49877023925781
6.01815340343,0.464475122070312,9.81622680664062,-1.49877023925781
6.02028483024205,0.502782348632812,9.84016882324219,-1.52750065917969
6.0223972731674,0.483628735351562,9.83538041992187,-1.54665427246094
6.02450971609275,0.474051928710937,9.83538041992187,-1.48440502929687
6.0266221590181,0.512359155273437,9.82101520996094,-1.56580788574219
6.02873190815004,0.454898315429687,9.83538041992187,-1.5322890625
6.03084165728197,0.47884033203125,9.83538041992187,-1.47961662597656
6.0329514064139,0.454898315429687,9.81143840332031,-1.47482822265625
6.03505930468864,0.51714755859375,9.79228479003906,-1.47003981933594
6.03716720296339,0.464475122070312,9.83538041992187,-1.56580788574219
6.03927510123813,0.474051928710937,9.82101520996094,-1.50834704589844
6.04138026714525,0.512359155273437,9.81622680664062,-1.51313544921875
6.04348543305236,0.450109912109375,9.78270798339844,-1.49877023925781
6.04559059895948,0.4213794921875,9.78270798339844,-1.44609780273437
6.04773071820861,0.454898315429687,9.77313117675781,-1.50355864257812
6.04987083745775,0.488417138671875,9.80665,-1.4939818359375
6.05201095670688,0.483628735351562,9.81143840332031,-1.50355864257812
6.05412633599289,0.435744702148437,9.79228479003906,-1.51313544921875
6.0562417152789,0.430956298828125,9.83538041992187,-1.47003981933594
6.05835709456491,0.426167895507812,9.81622680664062,-1.50355864257812
6.06047514621422,0.435744702148437,9.83059201660156,-1.47003981933594
6.06259319786353,0.454898315429687,9.81622680664062,-1.46046301269531
6.06471124951284,0.464475122070312,9.84016882324219,-1.48440502929687
6.06683074647466,0.47884033203125,9.82580361328125,-1.58974990234375
6.06895024343649,0.45968671875,9.80665,-1.49877023925781
6.07106974039831,0.483628735351562,9.8449572265625,-1.50834704589844
6.07318926600598,0.45968671875,9.83538041992187,-1.44609780273437
6.07530879161365,0.45968671875,9.86411083984375,-1.52750065917969
6.07742831722132,0.474051928710937,9.85932243652344,-1.53707746582031
6.07957455528556,0.51714755859375,9.86411083984375,-1.51792385253906
6.08172079334979,0.47884033203125,9.85932243652344,-1.49877023925781
6.08386703141403,0.469263525390625,9.85453403320312,-1.54665427246094
6.08599651920699,0.4979939453125,9.86411083984375,-1.49877023925781
6.08812600699994,0.512359155273437,9.83059201660156,-1.52750065917969
6.0902554947929,0.502782348632812,9.86889924316406,-1.50834704589844
6.09238357210407,0.512359155273437,9.85453403320312,-1.47961662597656
6.09451164941524,0.507570751953125,9.86889924316406,-1.49877023925781
6.09663972672641,0.507570751953125,9.82580361328125,-1.46525141601562
6.09876805224725,0.51714755859375,9.83538041992187,-1.48919343261719
6.10089637776808,0.483628735351562,9.82101520996094,-1.47961662597656
6.10302470328892,0.565031591796875,9.85453403320312,-1.48919343261719
6.10515301432409,0.51714755859375,9.87368764648437,-1.47482822265625
6.10728132535925,0.51714755859375,9.80186159667969,-1.455674609375
6.10940963639442,0.474051928710937,9.83538041992187,-1.49877023925781
6.11155100542651,0.493205541992187,9.8449572265625,-1.44130939941406
6.1136923744586,0.502782348632812,9.8449572265625,-1.47961662597656
6.1158337434907,0.45968671875,9.85932243652344,-1.47003981933594
6.11794005403756,0.47884033203125,9.83538041992187,-1.50355864257812
6.12004636458442,0.488417138671875,9.84974562988281,-1.455674609375
6.12215267513128,0.47884033203125,9.83538041992187,-1.4939818359375
6.12425441004881,0.445321508789062,9.81143840332031,-1.50834704589844
6.12635614496635,0.4213794921875,9.83059201660156,-1.55144267578125
6.12845787988388,0.483628735351562,9.86411083984375,-1.56580788574219
6.13055875076061,0.378283862304687,9.84016882324219,-1.51792385253906
6.13265962163733,0.368707055664062,9.83538041992187,-1.51792385253906
6.13476049251406,0.373495458984375,9.82101520996094,-1.48919343261719
6.13686128635084,0.407014282226562,9.83538041992187,-1.58496149902344
6.13896208018763,0.383072265625,9.80186159667969,-1.49877023925781
6.14106287402441,0.368707055664062,9.82580361328125,-1.48440502929687
6.14320142675876,0.339976635742188,9.84016882324219,-1.51313544921875
6.1453399794931,0.383072265625,9.81622680664062,-1.56580788574219
6.14747853222744,0.392649072265625,9.81622680664062,-1.54665427246094
6.14958658078428,0.4213794921875,9.83059201660156,-1.50834704589844
6.15169462934113,0.397437475585937,9.84016882324219,-1.48440502929687
6.15380267789797,0.40222587890625,9.79707319335937,-1.46525141601562
6.15590275276775,0.435744702148437,9.82580361328125,-1.56101948242187
6.15800282763753,0.426167895507812,9.81143840332031,-1.51792385253906
6.1601029025073,0.426167895507812,9.82580361328125,-1.50355864257812
6.16219650933237,0.464475122070312,9.87847604980469,-1.4939818359375
6.16429011615743,0.47884033203125,9.83059201660156,-1.54186586914062
6.16638372298249,0.536301171875,9.81143840332031,-1.52750065917969
6.16847662847294,0.450109912109375,9.81143840332031,-1.53707746582031
6.17056953396338,0.47884033203125,9.82580361328125,-1.48919343261719
6.17266243945383,0.507570751953125,9.78749638671875,-1.52271225585937
6.17480747819081,0.51714755859375,9.79707319335937,-1.49877023925781
6.17695251692778,0.502782348632812,9.79707319335937,-1.4939818359375
6.17909755566475,0.521935961914062,9.80665,-1.46046301269531
6.18121973817344,0.5746083984375,9.77791958007812,-1.43652099609375
6.18334192068212,0.59376201171875,9.78270798339844,-1.46525141601562
6.18546410319081,0.579396801757812,9.75876596679687,-1.45088620605469
6.18758727924333,0.560243188476563,9.7683427734375,-1.48919343261719
6.18971045529585,0.526724365234375,9.74918916015625,-1.44130939941406
6.19183363134837,0.560243188476563,9.77791958007812,-1.50834704589844
6.19395882183233,0.5746083984375,9.74440075683594,-1.45088620605469
6.1960840123163,0.545877978515625,9.7683427734375,-1.46046301269531
6.19820920280026,0.55545478515625,9.7683427734375,-1.47003981933594
6.20033698263964,0.588973608398437,9.74440075683594,-1.46525141601562
6.20246476247902,0.541089575195312,9.77313117675781,-1.43652099609375
6.20459254231841,0.550666381835937,9.77791958007812,-1.43652099609375
6.2066913376743,0.51714755859375,9.80665,-1.50834704589844
6.20879013303019,0.565031591796875,9.78749638671875,-1.46525141601562
6.21088892838608,0.531512768554687,9.77313117675781,-1.455674609375
6.21298534814519,0.550666381835937,9.79707319335937,-1.55623107910156
6.21508176790429,0.521935961914062,9.79228479003906,-1.52271225585937
6.21717818766339,0.4979939453125,9.81143840332031,-1.44609780273437
6.2193478886725,0.493205541992187,9.82101520996094,-1.4939818359375
6.22151758968161,0.531512768554687,9.81143840332031,-1.50355864257812
6.22368729069072,0.512359155273437,9.78749638671875,-1.56101948242187
6.22586135259393,0.521935961914062,9.76355437011719,-1.48919343261719
6.22803541449714,0.47884033203125,9.79228479003906,-1.51313544921875
6.23020947640035,0.45968671875,9.80665,-1.51313544921875
6.23238553428881,0.47884033203125,9.82101520996094,-1.51792385253906
6.23456159217728,0.474051928710937,9.80186159667969,-1.50834704589844
6.23673765006575,0.521935961914062,9.77313117675781,-1.51313544921875
6.23891530626151,0.464475122070312,9.82101520996094,-1.47482822265625
6.24109296245728,0.474051928710937,9.81143840332031,-1.49877023925781
6.24327061865304,0.454898315429687,9.83538041992187,-1.4939818359375
6.24546599305627,0.493205541992187,9.82101520996094,-1.52750065917969
6.24766136745949,0.47884033203125,9.82580361328125,-1.52271225585937
6.24985674186271,0.445321508789062,9.80665,-1.47961662597656
6.25528974498229,0.47884033203125,9.86889924316406,-1.50834704589844
6.26072274810187,0.4979939453125,9.87368764648437,-1.55144267578125
6.26615575122145,0.493205541992187,9.86411083984375,-1.52750065917969
6.27265600062466,0.521935961914062,9.84016882324219,-1.50834704589844
6.27915625002786,0.526724365234375,9.8449572265625,-1.52750065917969
6.28565649943107,0.512359155273437,9.85453403320312,-1.48919343261719
6.28783194740199,0.512359155273437,9.86889924316406,-1.51792385253906
6.29000739537291,0.569819995117188,9.80665,-1.52750065917969
6.29218284334382,0.565031591796875,9.82101520996094,-1.47961662597656
6.29429019756473,0.536301171875,9.85453403320312,-1.50355864257812
6.29639755178564,0.51714755859375,9.8449572265625,-1.49877023925781
6.29850490600654,0.507570751953125,9.8449572265625,-1.48919343261719
6.30054259041412,0.536301171875,9.82101520996094,-1.52271225585937
6.30258027482171,0.521935961914062,9.82580361328125,-1.48919343261719
6.30461795922929,0.536301171875,9.82580361328125,-1.47482822265625
6.30661758856959,0.531512768554687,9.85453403320312,-1.50834704589844
6.30861721790988,0.493205541992187,9.85453403320312,-1.455674609375
6.31061684725017,0.488417138671875,9.81622680664062,-1.51792385253906
6.31261259014298,0.474051928710937,9.80186159667969,-1.52271225585937
6.31460833303578,0.488417138671875,9.85453403320312,-1.50834704589844
6.31660407592858,0.469263525390625,9.81143840332031,-1.46525141601562
6.31855752959611,0.464475122070312,9.81143840332031,-1.45088620605469
6.32051098326364,0.47884033203125,9.7683427734375,-1.50834704589844
6.32246443693117,0.531512768554687,9.87368764648437,-1.41257897949219
6.32441683412084,0.47884033203125,9.81622680664062,-1.47482822265625
6.32636923131052,0.469263525390625,9.85453403320312,-1.47961662597656
6.32832162850019,0.488417138671875,9.83538041992187,-1.47961662597656
6.33027370179661,0.45968671875,9.82580361328125,-1.44130939941406
6.33222577509304,0.488417138671875,9.82580361328125,-1.51313544921875
6.33417784838946,0.464475122070312,9.82580361328125,-1.43652099609375
6.33613046531926,0.507570751953125,9.84016882324219,-1.46046301269531
6.33808308224907,0.464475122070312,9.78749638671875,-1.46046301269531
6.34003569917887,0.51714755859375,9.80665,-1.52750065917969
6.34204307050322,0.521935961914062,9.81143840332031,-1.48919343261719
6.34405044182758,0.531512768554687,9.83538041992187,-1.51313544921875
6.34605781315193,0.512359155273437,9.84016882324219,-1.46525141601562
6.34807153678475,0.483628735351562,9.83059201660156,-1.50834704589844
6.35008526041758,0.507570751953125,9.81143840332031,-1.52271225585937
6.3520989840504,0.512359155273437,9.83059201660156,-1.4173673828125
6.35411530171534,0.51714755859375,9.83059201660156,-1.50355864257812
6.35613161938027,0.493205541992187,9.79707319335937,-1.44130939941406
6.35814793704521,0.502782348632812,9.80186159667969,-1.47961662597656
6.36016677855997,0.531512768554687,9.82101520996094,-1.50834704589844
6.36218562007472,0.483628735351562,9.77791958007812,-1.50355864257812
6.36420446158948,0.493205541992187,9.79228479003906,-1.5322890625
6.36622471842542,0.55545478515625,9.78270798339844,-1.52750065917969
6.36824497526136,0.565031591796875,9.81622680664062,-1.4939818359375
6.3702652320973,0.531512768554687,9.81143840332031,-1.51313544921875
6.37233326027658,0.4979939453125,9.79707319335937,-1.46525141601562
6.37440128845586,0.541089575195312,9.78749638671875,-1.49877023925781
6.37646931663514,0.526724365234375,9.81622680664062,-1.52271225585937
6.37852124982744,0.541089575195312,9.80186159667969,-1.51792385253906
6.38057318301974,0.51714755859375,9.81143840332031,-1.45088620605469
6.38262511621204,0.536301171875,9.84016882324219,-1.51313544921875
6.38466403418082,0.51714755859375,9.82580361328125,-1.51792385253906
6.38670295214959,0.550666381835937,9.79707319335937,-1.4939818359375
6.38874187011837,0.51714755859375,9.84974562988281,-1.46046301269531
6.39077694140742,0.51714755859375,9.79228479003906,-1.46046301269531
6.39281201269647,0.531512768554687,9.82580361328125,-1.43652099609375
6.39484708398552,0.51714755859375,9.80665,-1.50834704589844
6.3968791915159,0.512359155273437,9.80186159667969,-1.54186586914062
6.39891129904628,0.51714755859375,9.79707319335937,-1.47961662597656
6.40094340657666,0.51714755859375,9.83538041992187,-1.51313544921875
6.40303856076502,0.521935961914062,9.84016882324219,-1.48919343261719
6.40513371495337,0.550666381835937,9.80665,-1.52750065917969
6.40722886914173,0.507570751953125,9.80665,-1.4173673828125
6.40932833311743,0.5746083984375,9.83538041992187,-1.53707746582031
6.41142779709313,0.531512768554687,9.83059201660156,-1.49877023925781
6.41352726106882,0.512359155273437,9.8449572265625,-1.44609780273437
6.41556687250544,0.536301171875,9.84016882324219,-1.51792385253906
6.41760648394206,0.488417138671875,9.81143840332031,-1.46046301269531
6.41964609537868,0.545877978515625,9.82580361328125,-1.4939818359375
6.4216832065983,0.531512768554687,9.86411083984375,-1.60411511230469
6.42372031781791,0.541089575195312,9.84016882324219,-1.54186586914062
6.42575742903753,0.507570751953125,9.83538041992187,-1.47003981933594
6.42777879318683,0.4979939453125,9.80665,-1.52750065917969
6.42980015733613,0.4979939453125,9.84016882324219,-1.48440502929687
6.43182152148543,0.531512768554687,9.82101520996094,-1.46046301269531
6.43389821050455,0.526724365234375,9.82101520996094,-1.50355864257812
6.43597489952366,0.536301171875,9.80665,-1.48919343261719
6.43805158854278,0.51714755859375,9.82101520996094,-1.55144267578125
6.44012760991862,0.502782348632812,9.82101520996094,-1.47961662597656
6.44220363129446,0.531512768554687,9.84016882324219,-1.52750065917969
6.4442796526703,0.4979939453125,9.82101520996094,-1.53707746582031
6.44623225217116,0.493205541992187,9.83538041992187,-1.51313544921875
6.44818485167202,0.454898315429687,9.8449572265625,-1.49877023925781
6.45013745117288,0.507570751953125,9.81622680664062,-1.48919343261719
6.45208657389423,0.483628735351562,9.83538041992187,-1.48919343261719
6.45403569661557,0.51714755859375,9.85932243652344,-1.46525141601562
6.45598481933692,0.4979939453125,9.82101520996094,-1.49877023925781
6.45793372461036,0.502782348632812,9.83059201660156,-1.50834704589844
6.4598826298838,0.469263525390625,9.83059201660156,-1.47961662597656
6.46183153515724,0.502782348632812,9.82580361328125,-1.48440502929687
6.46384398773973,0.526724365234375,9.85453403320312,-1.47003981933594
6.46585644032222,0.469263525390625,9.81143840332031,-1.52750065917969
6.4678688929047,0.47884033203125,9.84016882324219,-1.50834704589844
6.46988497341688,0.4979939453125,9.84016882324219,-1.47961662597656
6.47190105392905,0.512359155273437,9.84974562988281,-1.50355864257812
6.47391713444122,0.507570751953125,9.83538041992187,-1.47482822265625
6.47593357921122,0.47884033203125,9.84016882324219,-1.47003981933594
6.47795002398121,0.565031591796875,9.85932243652344,-1.48440502929687
6.4799664687512,0.521935961914062,9.88805285644531,-1.48919343261719
6.48198299110363,0.536301171875,9.86889924316406,-1.47961662597656
6.48399951345606,0.502782348632812,9.79707319335937,-1.47961662597656
6.48601603580849,0.521935961914062,9.83059201660156,-1.46525141601562
6.48801449909246,0.536301171875,9.81622680664062,-1.51313544921875
6.49001296237643,0.550666381835937,9.85932243652344,-1.51313544921875
6.49201142566039,0.531512768554687,9.85453403320312,-1.54665427246094
6.49406089030067,0.55545478515625,9.83059201660156,-1.47482822265625
6.49611035494094,0.521935961914062,9.83059201660156,-1.44130939941406
6.49815981958122,0.565031591796875,9.82101520996094,-1.46525141601562
6.50020764222661,0.531512768554687,9.80186159667969,-1.42694418945312
6.502255464872,0.550666381835937,9.83538041992187,-1.50355864257812
6.50430328751739,0.565031591796875,9.83059201660156,-1.4939818359375
6.50635115622399,0.488417138671875,9.82101520996094,-1.48440502929687
