timestamp,accel_x (m/s2),accel_y (m/s2),accel_z (m/s2)
0.00261160373263891,-0.450109912109375,10.0556469726563,-0.40222587890625
0.00522320746527782,-0.4213794921875,10.0652237792969,-0.392649072265625
0.00783481119791674,-0.416591088867187,10.0700121826172,-0.378283862304687
0.0130623221571184,-0.426167895507812,10.036493359375,-0.416591088867187
0.0182898331163202,-0.464475122070312,10.0317049560547,-0.450109912109375
0.0235173440755219,-0.416591088867187,10.0125513427734,-0.40222587890625
0.0287468897569454,-0.411802685546875,10.0029745361328,-0.387860668945312
0.0339764354383689,-0.416591088867187,10.0269165527344,-0.4213794921875
0.0392059811197925,-0.426167895507812,10.0269165527344,-0.426167895507812
0.0445021140408007,-0.426167895507812,9.9981861328125,-0.450109912109375
0.0497982469618089,-0.407014282226562,10.0029745361328,-0.430956298828125
0.0550943798828172,-0.392649072265625,10.0125513427734,-0.45968671875
0.0603958449435827,-0.383072265625,10.036493359375,-0.411802685546875
0.0656973100043482,-0.397437475585937,10.0125513427734,-0.383072265625
0.0709987750651138,-0.430956298828125,9.95509050292969,-0.407014282226562
0.0763023101128582,-0.373495458984375,10.0125513427734,-0.445321508789062
0.0816058451606025,-0.383072265625,9.98860932617187,-0.392649072265625
0.0869093802083469,-0.378283862304687,9.96466730957031,-0.445321508789062
0.092214352864597,-0.368707055664062,10.0029745361328,-0.4213794921875
0.0975193255208471,-0.368707055664062,9.99339772949219,-0.45968671875
0.102824298177097,-0.378283862304687,9.95030209960937,-0.430956298828125
0.108130766059044,-0.397437475585937,9.94551369628906,-0.359130249023437
0.11343723394099,-0.397437475585937,9.93593688964844,-0.36391865234375
0.118743701822936,-0.416591088867187,9.95509050292969,-0.36391865234375
0.124119944227452,-0.397437475585937,9.93114848632812,-0.411802685546875
0.129496186631968,-0.430956298828125,9.90241806640625,-0.378283862304687
0.134872429036484,-0.416591088867187,9.95030209960937,-0.426167895507812
0.140260041232665,-0.450109912109375,9.94072529296875,-0.368707055664062
0.145647653428846,-0.45968671875,9.92636008300781,-0.32561142578125
0.151035265625026,-0.445321508789062,9.96945571289062,-0.36391865234375
0.156427350260444,-0.454898315429687,9.94072529296875,-0.316034619140625
0.161819434895861,-0.464475122070312,9.93114848632812,-0.397437475585937
0.167211519531278,-0.416591088867187,9.98382092285156,-0.430956298828125
0.172607643012183,-0.450109912109375,9.95509050292969,-0.3064578125
0.178003766493087,-0.4979939453125,9.96945571289062,-0.339976635742188
0.183399889973991,-0.474051928710937,9.95509050292969,-0.392649072265625
0.188802825846388,-0.502782348632812,9.94551369628906,-0.445321508789062
0.194205761718784,-0.512359155273437,9.99339772949219,-0.359130249023437
0.199608697591181,-0.474051928710937,9.97903251953125,-0.32561142578125
0.205062289062537,-0.507570751953125,9.96945571289062,-0.330399829101562
0.210515880533893,-0.507570751953125,9.98382092285156,-0.416591088867187
0.215969472005249,-0.454898315429687,9.98860932617187,-0.339976635742188
0.221425512695355,-0.502782348632812,9.9215716796875,-0.296881005859375
0.226881553385461,-0.483628735351562,9.95987890625,-0.316034619140625
0.232337594075567,-0.450109912109375,9.95030209960937,-0.301669409179687
0.237795028320358,-0.435744702148437,9.95509050292969,-0.311246215820312
0.24325246256515,-0.474051928710937,9.92636008300781,-0.3447650390625
0.248709896809942,-0.47884033203125,9.9215716796875,-0.335188232421875
0.254169338758726,-0.445321508789062,9.93114848632812,-0.296881005859375
0.259628780707511,-0.464475122070312,9.93114848632812,-0.296881005859375
0.265088222656296,-0.40222587890625,9.91678327636719,-0.3447650390625
0.270550584201435,-0.426167895507812,9.91678327636719,-0.407014282226562
0.276012945746575,-0.407014282226562,9.94551369628906,-0.407014282226562
0.281475307291714,-0.378283862304687,9.94551369628906,-0.44053310546875
0.287006323567757,-0.392649072265625,9.95030209960937,-0.430956298828125
0.292537339843799,-0.411802685546875,9.95030209960937,-0.387860668945312
0.298068356119842,-0.40222587890625,9.94551369628906,-0.450109912109375
0.303602563042586,-0.373495458984375,9.98860932617187,-0.435744702148437
0.30913676996533,-0.3447650390625,9.98860932617187,-0.445321508789062
0.314670976888074,-0.354341845703125,10.0412817626953,-0.44053310546875
0.320208788954048,-0.316034619140625,9.9981861328125,-0.387860668945312
0.325746601020022,-0.272938989257812,10.0221281494141,-0.40222587890625
0.331284413085996,-0.373495458984375,10.0125513427734,-0.435744702148437
0.336824279947976,-0.339976635742188,10.0317049560547,-0.4213794921875
0.342364146809956,-0.301669409179687,10.0317049560547,-0.387860668945312
0.347904013671936,-0.296881005859375,10.0125513427734,-0.407014282226562
0.353445999132006,-0.316034619140625,10.0221281494141,-0.450109912109375
0.358987984592076,-0.311246215820312,10.036493359375,-0.411802685546875
0.364529970052146,-0.32561142578125,10.0795889892578,-0.450109912109375
0.370138856119856,-0.301669409179687,10.0652237792969,-0.44053310546875
0.375747742187566,-0.359130249023437,10.0748005859375,-0.392649072265625
0.381356628255276,-0.354341845703125,10.0652237792969,-0.445321508789062
0.386968216362916,-0.383072265625,10.0460701660156,-0.493205541992187
0.392579804470557,-0.397437475585937,10.0412817626953,-0.507570751953125
0.398191392578198,-0.397437475585937,10.0029745361328,-0.454898315429687
0.403804736111186,-0.435744702148437,9.9981861328125,-0.493205541992187
0.409418079644174,-0.435744702148437,10.0029745361328,-0.507570751953125
0.415031423177162,-0.445321508789062,10.0029745361328,-0.407014282226562
0.420646355902858,-0.474051928710937,9.97424411621094,-0.435744702148437
0.426261288628555,-0.51714755859375,9.95030209960937,-0.387860668945312
0.431876221354251,-0.531512768554687,9.96466730957031,-0.469263525390625
0.437493096571266,-0.507570751953125,9.95030209960937,-0.435744702148437
0.443109971788282,-0.579396801757812,9.9981861328125,-0.51714755859375
0.448726847005297,-0.569819995117188,9.96466730957031,-0.469263525390625
0.454413632161547,-0.584185205078125,9.93114848632812,-0.44053310546875
0.460100417317797,-0.59376201171875,9.95987890625,-0.445321508789062
0.465787202474047,-0.565031591796875,9.98860932617187,-0.469263525390625
0.471479789713631,-0.55545478515625,9.94072529296875,-0.435744702148437
0.477172376953215,-0.565031591796875,9.97424411621094,-0.392649072265625
0.4828649641928,-0.5746083984375,9.97424411621094,-0.445321508789062
0.48855953526485,-0.565031591796875,9.94551369628906,-0.450109912109375
0.494254106336901,-0.569819995117188,9.94551369628906,-0.397437475585937
0.499948677408952,-0.560243188476563,9.95030209960937,-0.387860668945312
0.505644994249231,-0.536301171875,9.93114848632812,-0.383072265625
0.51134131108951,-0.493205541992187,9.94072529296875,-0.330399829101562
0.517037627929788,-0.493205541992187,9.9215716796875,-0.3064578125
0.522735401150276,-0.47884033203125,9.94551369628906,-0.392649072265625
0.528433174370763,-0.493205541992187,9.92636008300781,-0.36391865234375
0.534130947591251,-0.44053310546875,9.91678327636719,-0.359130249023437
0.539898633138127,-0.387860668945312,9.91199487304687,-0.392649072265625
0.545666318685003,-0.36391865234375,9.91199487304687,-0.335188232421875
0.551434004231879,-0.36391865234375,9.88805285644531,-0.411802685546875
0.557208812825631,-0.373495458984375,9.85932243652344,-0.349553442382812
0.562983621419382,-0.387860668945312,9.87368764648437,-0.3447650390625
0.568758430013133,-0.36391865234375,9.85453403320312,-0.349553442382812
0.574535706488829,-0.36391865234375,9.85932243652344,-0.392649072265625
0.580312982964524,-0.339976635742188,9.83059201660156,-0.416591088867187
0.586090259440219,-0.349553442382812,9.86411083984375,-0.368707055664062
0.591869383246644,-0.335188232421875,9.84974562988281,-0.426167895507812
0.597648507053068,-0.36391865234375,9.84016882324219,-0.36391865234375
0.603427630859493,-0.335188232421875,9.84974562988281,-0.392649072265625
0.609209733398555,-0.316034619140625,9.85932243652344,-0.373495458984375
0.614991835937618,-0.330399829101562,9.86411083984375,-0.368707055664062
0.620773938476681,-0.373495458984375,9.83538041992187,-0.416591088867187
0.626696233181543,-0.354341845703125,9.85932243652344,-0.3447650390625
0.632618527886405,-0.359130249023437,9.87368764648437,-0.359130249023437
0.638540822591267,-0.3447650390625,9.85453403320312,-0.3447650390625
0.644465923828247,-0.36391865234375,9.87368764648437,-0.335188232421875
0.650391025065228,-0.378283862304687,9.86411083984375,-0.373495458984375
0.656316126302208,-0.368707055664062,9.87847604980469,-0.383072265625
0.662244900282244,-0.407014282226562,9.88805285644531,-0.36391865234375
0.66817367426228,-0.368707055664062,9.86411083984375,-0.44053310546875
0.674102448242316,-0.426167895507812,9.89284125976562,-0.435744702148437
0.680033402777906,-0.411802685546875,9.91678327636719,-0.464475122070312
0.685964357313497,-0.368707055664062,9.95509050292969,-0.450109912109375
0.691895311849088,-0.445321508789062,9.96945571289062,-0.383072265625
0.69782841124145,-0.454898315429687,9.97424411621094,-0.474051928710937
0.703761510633813,-0.44053310546875,9.97903251953125,-0.430956298828125
0.709694610026176,-0.426167895507812,9.95509050292969,-0.426167895507812
0.715629557834336,-0.445321508789062,9.95509050292969,-0.40222587890625
0.721564505642495,-0.454898315429687,9.9981861328125,-0.411802685546875
0.727499453450655,-0.469263525390625,10.0029745361328,-0.411802685546875
0.733437242730169,-0.469263525390625,10.0029745361328,-0.45968671875
0.739375032009683,-0.483628735351562,10.0173397460938,-0.4213794921875
0.745312821289197,-0.450109912109375,10.0125513427734,-0.368707055664062
0.760266099826527,-0.45968671875,10.0795889892578,-0.44053310546875
0.775219378363857,-0.435744702148437,10.0795889892578,-0.445321508789062
0.790172656901188,-0.47884033203125,10.0748005859375,-0.4213794921875
0.796176377387301,-0.474051928710937,10.0604353759766,-0.359130249023437
0.802180097873414,-0.483628735351562,10.0556469726563,-0.407014282226562
0.808183818359527,-0.454898315429687,10.0748005859375,-0.469263525390625
0.81419065744373,-0.488417138671875,10.0604353759766,-0.4213794921875
0.820197496527933,-0.483628735351562,10.0652237792969,-0.407014282226562
0.826204335612136,-0.483628735351562,10.0508585693359,-0.44053310546875
0.832213008246686,-0.45968671875,10.0652237792969,-0.392649072265625
0.838221680881237,-0.45968671875,10.0843773925781,-0.373495458984375
0.844230353515787,-0.474051928710937,10.0221281494141,-0.430956298828125
0.850240793836968,-0.474051928710937,10.1035310058594,-0.339976635742188
0.85625123415815,-0.474051928710937,10.1131078125,-0.368707055664062
0.862261674479331,-0.512359155273437,10.0795889892578,-0.359130249023437
0.868340100694611,-0.4979939453125,10.1131078125,-0.411802685546875
0.874418526909891,-0.474051928710937,10.0748005859375,-0.426167895507812
0.880496953125171,-0.4979939453125,10.0508585693359,-0.349553442382812
0.886579791775346,-0.493205541992187,10.0748005859375,-0.4213794921875
0.892662630425521,-0.483628735351562,10.0891657958984,-0.349553442382812
0.898745469075696,-0.47884033203125,10.0795889892578,-0.387860668945312
0.904831064670315,-0.45968671875,10.0317049560547,-0.373495458984375
0.910916660264935,-0.4979939453125,10.0269165527344,-0.32561142578125
0.917002255859554,-0.507570751953125,10.0317049560547,-0.411802685546875
0.923089734266674,-0.493205541992187,10.0508585693359,-0.36391865234375
0.929177212673794,-0.488417138671875,10.0077629394531,-0.368707055664062
0.935264691080913,-0.488417138671875,10.0269165527344,-0.40222587890625
0.941353937391678,-0.464475122070312,10.0125513427734,-0.36391865234375
0.947443183702443,-0.47884033203125,10.0221281494141,-0.4213794921875
0.953532430013208,-0.507570751953125,10.036493359375,-0.359130249023437
0.959691191080918,-0.464475122070312,10.0317049560547,-0.40222587890625
0.965849952148627,-0.488417138671875,10.036493359375,-0.373495458984375
0.972008713216336,-0.521935961914062,9.97424411621094,-0.3447650390625
0.978173728515817,-0.469263525390625,10.0029745361328,-0.3447650390625
0.984338743815297,-0.45968671875,9.94551369628906,-0.320823022460937
0.990503759114777,-0.45968671875,9.9981861328125,-0.349553442382812
0.996673086371723,-0.450109912109375,9.97424411621094,-0.383072265625
1.00284241362867,-0.483628735351562,9.97903251953125,-0.368707055664062
1.00901174088562,-0.45968671875,9.92636008300781,-0.36391865234375
1.01518290125888,-0.464475122070312,9.93593688964844,-0.392649072265625
1.02135406163215,-0.416591088867187,9.96945571289062,-0.392649072265625
1.02752522200541,-0.450109912109375,9.95509050292969,-0.368707055664062
1.03369813823805,-0.44053310546875,9.95509050292969,-0.36391865234375
1.03987105447069,-0.426167895507812,9.9215716796875,-0.349553442382812
1.04604397070333,-0.426167895507812,9.90241806640625,-0.407014282226562
1.05227857313389,-0.445321508789062,9.94551369628906,-0.373495458984375
1.05851317556445,-0.426167895507812,9.94551369628906,-0.378283862304687
1.06474777799501,-0.397437475585937,9.89284125976562,-0.378283862304687
1.07098554101584,-0.392649072265625,9.90241806640625,-0.397437475585937
1.07722330403667,-0.435744702148437,9.95987890625,-0.397437475585937
1.08346106705751,-0.40222587890625,9.97424411621094,-0.3447650390625
1.08970321940126,-0.392649072265625,9.94072529296875,-0.339976635742188
1.09594537174501,-0.40222587890625,9.94551369628906,-0.397437475585937
1.10218752408877,-0.426167895507812,9.94072529296875,-0.392649072265625
1.10843158116342,-0.40222587890625,9.95030209960937,-0.392649072265625
1.11467563823807,-0.4213794921875,9.96945571289062,-0.44053310546875
1.12091969531273,-0.435744702148437,9.94551369628906,-0.40222587890625
1.12717042491342,-0.416591088867187,9.94551369628906,-0.378283862304687
1.13342115451412,-0.416591088867187,9.94551369628906,-0.416591088867187
1.13967188411482,-0.445321508789062,9.93593688964844,-0.445321508789062
1.14598435156273,-0.4213794921875,9.94551369628906,-0.4213794921875
1.15229681901065,-0.397437475585937,9.90241806640625,-0.378283862304687
1.15860928645857,-0.464475122070312,9.91199487304687,-0.454898315429687
1.16492426378062,-0.450109912109375,9.93593688964844,-0.368707055664062
1.17123924110266,-0.435744702148437,9.91678327636719,-0.368707055664062
1.17755421842471,-0.45968671875,9.89284125976562,-0.3447650390625
1.18387098198808,-0.4213794921875,9.93114848632812,-0.368707055664062
1.19018774555145,-0.435744702148437,9.93114848632812,-0.392649072265625
1.19650450911482,-0.445321508789062,9.93593688964844,-0.387860668945312
1.20289529752628,-0.450109912109375,9.91199487304687,-0.40222587890625
1.20928608593774,-0.47884033203125,9.9215716796875,-0.359130249023437
1.2156768743492,-0.469263525390625,9.95987890625,-0.378283862304687
1.22207028200979,-0.44053310546875,9.94551369628906,-0.378283862304687
1.22846368967038,-0.454898315429687,9.93593688964844,-0.392649072265625
1.23485709733097,-0.47884033203125,9.93593688964844,-0.44053310546875
1.2412524228518,-0.507570751953125,9.97903251953125,-0.359130249023437
1.24764774837264,-0.4979939453125,9.94072529296875,-0.349553442382812
1.25404307389347,-0.454898315429687,9.98860932617187,-0.397437475585937
1.26044025347247,-0.454898315429687,9.96945571289062,-0.36391865234375
1.26683743305146,-0.488417138671875,9.96466730957031,-0.392649072265625
1.27323461263046,-0.47884033203125,9.9981861328125,-0.392649072265625
1.27963362771292,-0.435744702148437,9.96945571289062,-0.359130249023437
1.28603264279539,-0.45968671875,10.0029745361328,-0.378283862304687
1.29243165787785,-0.469263525390625,9.97903251953125,-0.378283862304687
1.2988324476999,-0.464475122070312,9.98860932617187,-0.411802685546875
1.30523323752195,-0.464475122070312,9.98860932617187,-0.397437475585937
1.311634027344,-0.488417138671875,10.0269165527344,-0.3447650390625
1.31803652365477,-0.45968671875,9.98860932617187,-0.411802685546875
1.32443901996553,-0.45968671875,9.96466730957031,-0.378283862304687
1.3308415162763,-0.464475122070312,10.0029745361328,-0.407014282226562
1.33731184168863,-0.426167895507812,9.98860932617187,-0.368707055664062
1.34378216710095,-0.45968671875,10.0125513427734,-0.392649072265625
1.35025249251328,-0.464475122070312,10.0125513427734,-0.378283862304687
1.35672585384141,-0.44053310546875,10.0269165527344,-0.349553442382812
1.36319921516953,-0.454898315429687,10.036493359375,-0.378283862304687
1.36967257649766,-0.474051928710937,10.0412817626953,-0.383072265625
1.37614815299506,-0.464475122070312,10.0795889892578,-0.368707055664062
1.38262372949245,-0.474051928710937,10.0317049560547,-0.435744702148437
1.38909930598985,-0.445321508789062,10.036493359375,-0.378283862304687
1.39557696072075,-0.430956298828125,10.0125513427734,-0.392649072265625
1.40205461545165,-0.47884033203125,10.0029745361328,-0.407014282226562
1.40853227018256,-0.450109912109375,10.0269165527344,-0.430956298828125
1.41501202799506,-0.435744702148437,10.0317049560547,-0.4213794921875
1.42149178580756,-0.445321508789062,10.0221281494141,-0.426167895507812
1.42797154362006,-0.44053310546875,10.0125513427734,-0.407014282226562
1.43452568413656,-0.445321508789062,10.036493359375,-0.45968671875
1.44107982465305,-0.45968671875,10.0700121826172,-0.426167895507812
1.44763396516955,-0.430956298828125,10.0795889892578,-0.387860668945312
1.45419504112441,-0.416591088867187,10.0269165527344,-0.407014282226562
1.46075611707927,-0.44053310546875,10.0317049560547,-0.44053310546875
1.46731719303413,-0.44053310546875,10.0412817626953,-0.454898315429687
1.47388051074246,-0.474051928710937,10.0125513427734,-0.493205541992187
1.4804438284508,-0.454898315429687,9.99339772949219,-0.541089575195312
1.48700714615913,-0.493205541992187,10.0125513427734,-0.4213794921875
1.49357224327285,-0.488417138671875,10.0029745361328,-0.454898315429687
1.50013734038657,-0.435744702148437,9.97903251953125,-0.45968671875
1.50670243750028,-0.40222587890625,10.0029745361328,-0.426167895507812
1.51326927267824,-0.430956298828125,9.96945571289062,-0.44053310546875
1.51983610785619,-0.454898315429687,10.036493359375,-0.416591088867187
1.52640294303414,-0.450109912109375,10.0029745361328,-0.359130249023437
1.53302850227893,-0.454898315429687,10.0269165527344,-0.320823022460937
1.53965406152373,-0.469263525390625,9.96466730957031,-0.397437475585937
1.54627962076852,-0.430956298828125,9.96466730957031,-0.397437475585937
1.55292438476592,-0.464475122070312,9.99339772949219,-0.407014282226562
1.55956914876331,-0.45968671875,10.0173397460938,-0.392649072265625
1.56621391276071,-0.474051928710937,10.0317049560547,-0.416591088867187
1.57286291970516,-0.469263525390625,9.98382092285156,-0.407014282226562
1.5795119266496,-0.450109912109375,10.0077629394531,-0.426167895507812
1.58616093359405,-0.507570751953125,9.97903251953125,-0.392649072265625
1.59281355327721,-0.445321508789062,10.0125513427734,-0.407014282226562
1.59946617296037,-0.45968671875,10.0029745361328,-0.387860668945312
1.60611879264353,-0.4979939453125,9.98382092285156,-0.44053310546875
1.61277485980933,-0.483628735351562,9.99339772949219,-0.44053310546875
1.61943092697513,-0.502782348632812,9.99339772949219,-0.378283862304687
1.62608699414093,-0.47884033203125,9.96945571289062,-0.359130249023437
1.63279056043867,-0.454898315429687,9.97424411621094,-0.407014282226562
1.63949412673642,-0.4979939453125,9.91199487304687,-0.339976635742188
1.64619769303416,-0.474051928710937,9.92636008300781,-0.3447650390625
1.65290745345083,-0.450109912109375,9.91678327636719,-0.316034619140625
1.6596172138675,-0.483628735351562,9.89284125976562,-0.330399829101562
1.66632697428416,-0.493205541992187,9.883264453125,-0.258573779296875
1.67306001497427,-0.454898315429687,9.90720646972656,-0.349553442382812
1.67979305566438,-0.45968671875,9.91678327636719,-0.339976635742188
1.68652609635448,-0.493205541992187,9.90720646972656,-0.387860668945312
1.69326426595084,-0.435744702148437,9.95030209960937,-0.373495458984375
1.70000243554719,-0.483628735351562,9.94072529296875,-0.296881005859375
1.70674060514355,-0.450109912109375,9.94551369628906,-0.383072265625
1.71348100737879,-0.450109912109375,9.94072529296875,-0.359130249023437
1.72022140961404,-0.450109912109375,9.97903251953125,-0.387860668945312
1.72696181184928,-0.411802685546875,9.98382092285156,-0.383072265625
1.73382315918001,-0.44053310546875,10.0173397460938,-0.407014282226562
1.74068450651074,-0.392649072265625,9.98382092285156,-0.445321508789062
1.74754585384147,-0.4213794921875,9.97903251953125,-0.359130249023437
1.75441021180588,-0.416591088867187,10.0269165527344,-0.387860668945312
1.76127456977029,-0.383072265625,10.0460701660156,-0.426167895507812
1.7681389277347,-0.383072265625,10.0173397460938,-0.383072265625
1.77500533539529,-0.359130249023437,10.0460701660156,-0.392649072265625
1.78187174305588,-0.335188232421875,10.0269165527344,-0.301669409179687
1.78873815071647,-0.368707055664062,10.0412817626953,-0.296881005859375
1.79560640668436,-0.354341845703125,10.0173397460938,-0.339976635742188
1.80247466265224,-0.339976635742188,10.0412817626953,-0.354341845703125
1.80934291862012,-0.397437475585937,10.0556469726563,-0.354341845703125
1.81621295149773,-0.36391865234375,10.0556469726563,-0.435744702148437
1.82308298437533,-0.407014282226562,10.0652237792969,-0.397437475585937
1.82995301725294,-0.416591088867187,10.0652237792969,-0.430956298828125
1.83682496169738,-0.416591088867187,10.0460701660156,-0.45968671875
1.84369690614183,-0.411802685546875,10.0652237792969,-0.47884033203125
1.85056885058627,-0.416591088867187,10.0939541992188,-0.435744702148437
1.85744325466614,-0.435744702148437,10.036493359375,-0.454898315429687
1.864317658746,-0.47884033203125,10.0125513427734,-0.454898315429687
1.87119206282586,-0.464475122070312,9.9981861328125,-0.47884033203125
1.88851411634691,-0.627280834960937,10.0700121826172,-0.47884033203125
1.90583616986797,-0.608127221679687,10.0556469726563,-0.454898315429687
1.92315822338902,-0.584185205078125,10.0221281494141,-0.416591088867187
1.93011557712166,-0.584185205078125,10.0460701660156,-0.387860668945312
1.9370729308543,-0.569819995117188,10.0604353759766,-0.330399829101562
1.94403028458694,-0.588973608398437,10.0125513427734,-0.397437475585937
1.95099116533781,-0.560243188476563,10.0508585693359,-0.359130249023437
1.95795204608868,-0.545877978515625,10.0317049560547,-0.36391865234375
1.96491292683955,-0.565031591796875,10.0077629394531,-0.292092602539062
1.97187720548538,-0.55545478515625,9.98382092285156,-0.28730419921875
1.97884148413122,-0.488417138671875,9.97903251953125,-0.282515795898438
1.98580576277705,-0.483628735351562,9.95987890625,-0.330399829101562
1.9927734010149,-0.430956298828125,9.97424411621094,-0.3064578125
1.99974103925275,-0.416591088867187,9.94072529296875,-0.282515795898438
2.0067086774906,-0.464475122070312,9.91199487304687,-0.292092602539062
2.0137266869307,-0.40222587890625,9.883264453125,-0.3447650390625
2.02074469637081,-0.407014282226562,9.87847604980469,-0.330399829101562
2.02776270581091,-0.426167895507812,9.88805285644531,-0.316034619140625
2.03479963408782,-0.368707055664062,9.87847604980469,-0.320823022460937
2.04183656236473,-0.330399829101562,9.883264453125,-0.253785375976562
2.04887349064164,-0.387860668945312,9.91199487304687,-0.292092602539062
2.05591431996022,-0.330399829101562,9.86889924316406,-0.296881005859375
2.0629551492788,-0.378283862304687,9.89762966308594,-0.316034619140625
2.06999597859737,-0.383072265625,9.85932243652344,-0.263362182617187
2.07704026733435,-0.349553442382812,9.85453403320312,-0.316034619140625
2.08408455607133,-0.373495458984375,9.82580361328125,-0.3064578125
2.09112884480831,-0.36391865234375,9.89762966308594,-0.301669409179687
2.09818059101057,-0.335188232421875,9.85932243652344,-0.354341845703125
2.10523233721283,-0.339976635742188,9.81622680664062,-0.277727392578125
2.11228408341509,-0.359130249023437,9.85932243652344,-0.330399829101562
2.11937801407915,-0.392649072265625,9.85932243652344,-0.354341845703125
2.12647194474321,-0.383072265625,9.86411083984375,-0.335188232421875
2.13356587540727,-0.36391865234375,9.87368764648437,-0.339976635742188
2.14066239070675,-0.368707055664062,9.85932243652344,-0.335188232421875
2.14775890600623,-0.397437475585937,9.8449572265625,-0.32561142578125
2.15485542130572,-0.416591088867187,9.84974562988281,-0.407014282226562
2.16195395733002,-0.407014282226562,9.94551369628906,-0.32561142578125
2.16905249335433,-0.373495458984375,9.89284125976562,-0.359130249023437
2.17615102937863,-0.40222587890625,9.93114848632812,-0.416591088867187
2.18325244387516,-0.368707055664062,9.9215716796875,-0.426167895507812
2.19035385837169,-0.397437475585937,9.92636008300781,-0.407014282226562
2.19745527286822,-0.430956298828125,9.95987890625,-0.407014282226562
2.20455845928315,-0.387860668945312,9.9215716796875,-0.36391865234375
2.21166164569808,-0.426167895507812,9.94551369628906,-0.335188232421875
2.21876483211301,-0.4213794921875,9.97424411621094,-0.335188232421875
2.22593770353228,-0.45968671875,9.96466730957031,-0.368707055664062
2.23311057495156,-0.435744702148437,9.95987890625,-0.32561142578125
2.24028344637083,-0.407014282226562,10.0077629394531,-0.2681505859375
2.24748610110173,-0.445321508789062,9.95509050292969,-0.316034619140625
2.25468875583264,-0.4213794921875,9.97903251953125,-0.311246215820312
2.26189141056354,-0.44053310546875,9.99339772949219,-0.316034619140625
2.26909619821545,-0.435744702148437,9.95509050292969,-0.335188232421875
2.27630098586736,-0.469263525390625,9.9981861328125,-0.320823022460937
2.28350577351927,-0.483628735351562,10.0077629394531,-0.3064578125
2.29071265285955,-0.430956298828125,9.9981861328125,-0.320823022460937
2.29791953219983,-0.44053310546875,10.0173397460938,-0.378283862304687
2.3051264115401,-0.454898315429687,9.97903251953125,-0.349553442382812
2.31233459003403,-0.44053310546875,10.0077629394531,-0.320823022460937
2.31954276852796,-0.4213794921875,9.99339772949219,-0.32561142578125
2.32675094702188,-0.383072265625,10.0029745361328,-0.430956298828125
2.33400052373629,-0.4213794921875,10.0029745361328,-0.387860668945312
2.3412501004507,-0.426167895507812,9.98382092285156,-0.292092602539062
2.34849967716511,-0.416591088867187,9.96945571289062,-0.316034619140625
2.35575179619723,-0.450109912109375,9.97903251953125,-0.411802685546875
2.36300391522935,-0.44053310546875,10.0029745361328,-0.378283862304687
2.37025603426147,-0.426167895507812,10.0125513427734,-0.335188232421875
2.37750950485609,-0.416591088867187,9.99339772949219,-0.339976635742188
2.38476297545071,-0.397437475585937,9.99339772949219,-0.320823022460937
2.39201644604533,-0.426167895507812,10.0317049560547,-0.32561142578125
2.39665972555922,-0.435744702148437,10.0173397460938,-0.373495458984375
2.40130300507311,-0.411802685546875,10.0317049560547,-0.32561142578125
2.405946284587,-0.44053310546875,10.0556469726563,-0.383072265625
2.40797501722589,-0.4213794921875,10.0604353759766,-0.3447650390625
2.41000374986478,-0.435744702148437,10.0460701660156,-0.349553442382812
2.41203248250367,-0.416591088867187,10.0460701660156,-0.349553442382812
2.41413915578926,-0.430956298828125,10.0317049560547,-0.411802685546875
2.41624582907485,-0.4213794921875,10.0700121826172,-0.397437475585937
2.41835250236044,-0.4213794921875,10.0269165527344,-0.416591088867187
2.42039728805922,-0.454898315429687,10.036493359375,-0.416591088867187
2.422442073758,-0.4213794921875,10.0412817626953,-0.383072265625
2.42448685945679,-0.387860668945312,10.0221281494141,-0.359130249023437
2.42652880455227,-0.426167895507812,10.0460701660156,-0.36391865234375
2.42857074964776,-0.426167895507812,10.0556469726563,-0.397437475585937
2.43061269474324,-0.397437475585937,10.0173397460938,-0.368707055664062
2.43265494637085,-0.435744702148437,10.0077629394531,-0.383072265625
2.43469719799845,-0.430956298828125,10.0029745361328,-0.426167895507812
2.43673944962606,-0.45968671875,10.0317049560547,-0.392649072265625
2.43878263690904,-0.450109912109375,9.9981861328125,-0.359130249023437
2.44082582419203,-0.454898315429687,9.96466730957031,-0.416591088867187
2.44286901147501,-0.474051928710937,10.0077629394531,-0.397437475585937
2.44496772479967,-0.507570751953125,9.95030209960937,-0.387860668945312
2.44706643812432,-0.454898315429687,9.96945571289062,-0.4213794921875
2.44916515144897,-0.45968671875,9.98382092285156,-0.450109912109375
2.45121180715643,-0.51714755859375,9.96945571289062,-0.36391865234375
2.4532584628639,-0.4213794921875,9.96466730957031,-0.454898315429687
2.45530511857136,-0.435744702148437,9.9215716796875,-0.407014282226562
2.45734374867119,-0.44053310546875,9.94072529296875,-0.416591088867187
2.45938237877102,-0.450109912109375,9.95987890625,-0.349553442382812
2.46142100887085,-0.464475122070312,9.9215716796875,-0.3447650390625
2.46345751559828,-0.45968671875,9.97424411621094,-0.407014282226562
2.46549402232571,-0.45968671875,9.93593688964844,-0.378283862304687
2.46753052905314,-0.407014282226562,9.96945571289062,-0.383072265625
2.46956528176581,-0.445321508789062,9.98860932617187,-0.430956298828125
2.47160003447848,-0.435744702148437,9.94072529296875,-0.411802685546875
2.47363478719116,-0.445321508789062,9.93593688964844,-0.349553442382812
2.47571516718248,-0.45968671875,9.95030209960937,-0.320823022460937
2.47779554717379,-0.483628735351562,9.95030209960937,-0.397437475585937
2.47987592716511,-0.464475122070312,9.95030209960937,-0.359130249023437
2.48190962714341,-0.44053310546875,9.95030209960937,-0.373495458984375
2.48394332712171,-0.493205541992187,9.92636008300781,-0.3447650390625
2.48597702710001,-0.45968671875,9.97424411621094,-0.378283862304687
2.48801168888386,-0.454898315429687,9.91199487304687,-0.3064578125
2.49004635066771,-0.488417138671875,9.93114848632812,-0.320823022460937
2.49208101245157,-0.502782348632812,9.94072529296875,-0.320823022460937
2.49411665958699,-0.45968671875,9.96466730957031,-0.316034619140625
2.4961523067224,-0.450109912109375,9.95030209960937,-0.330399829101562
2.49818795385782,-0.483628735351562,9.95509050292969,-0.378283862304687
2.50022433233004,-0.45968671875,9.92636008300781,-0.378283862304687
2.50226071080227,-0.4979939453125,9.9215716796875,-0.383072265625
2.50429708927449,-0.488417138671875,9.9215716796875,-0.368707055664062
2.50639642499498,-0.4979939453125,9.93593688964844,-0.387860668945312
2.50849576071547,-0.51714755859375,9.9215716796875,-0.330399829101562
2.51059509643595,-0.474051928710937,9.9215716796875,-0.387860668945312
2.51262975257745,-0.464475122070312,9.95030209960937,-0.335188232421875
2.51466440871894,-0.44053310546875,9.93114848632812,-0.354341845703125
2.51669906486043,-0.464475122070312,9.96466730957031,-0.349553442382812
2.51873383797241,-0.45968671875,9.94072529296875,-0.359130249023437
2.52076861108439,-0.45968671875,9.97424411621094,-0.359130249023437
2.52280338419637,-0.454898315429687,9.94551369628906,-0.392649072265625
2.52483692662258,-0.445321508789062,9.94072529296875,-0.316034619140625
2.5268704690488,-0.44053310546875,9.96466730957031,-0.320823022460937
2.52890401147501,-0.435744702148437,9.97424411621094,-0.32561142578125
2.5309377816573,-0.464475122070312,9.92636008300781,-0.354341845703125
2.53297155183959,-0.445321508789062,9.94551369628906,-0.373495458984375
2.53500532202188,-0.416591088867187,9.95509050292969,-0.368707055664062
2.53710753990383,-0.454898315429687,10.0029745361328,-0.354341845703125
2.53920975778578,-0.392649072265625,9.98382092285156,-0.373495458984375
2.54131197566772,-0.426167895507812,9.95509050292969,-0.349553442382812
2.54335563680053,-0.416591088867187,10.0029745361328,-0.32561142578125
2.54539929793334,-0.407014282226562,9.98382092285156,-0.36391865234375
2.54744295906616,-0.450109912109375,9.96466730957031,-0.330399829101562
2.54948763538994,-0.416591088867187,9.97903251953125,-0.335188232421875
2.55153231171372,-0.450109912109375,10.0125513427734,-0.373495458984375
2.55357698803751,-0.45968671875,9.98382092285156,-0.3064578125
2.55562339461303,-0.411802685546875,9.99339772949219,-0.28730419921875
2.55766980118855,-0.454898315429687,10.0221281494141,-0.32561142578125
2.55971620776407,-0.445321508789062,9.98860932617187,-0.378283862304687
2.56176477330227,-0.450109912109375,10.0221281494141,-0.383072265625
2.56381333884046,-0.4213794921875,9.97903251953125,-0.311246215820312
2.56586190437865,-0.4213794921875,10.0221281494141,-0.36391865234375
2.56799273467379,-0.4213794921875,10.0125513427734,-0.36391865234375
2.57012356496893,-0.44053310546875,9.98382092285156,-0.296881005859375
2.57225439526407,-0.454898315429687,10.0125513427734,-0.32561142578125
2.57432029467813,-0.411802685546875,10.0125513427734,-0.3447650390625
2.5763861940922,-0.474051928710937,10.0269165527344,-0.392649072265625
2.57845209350626,-0.416591088867187,9.9981861328125,-0.330399829101562
2.58051690915296,-0.430956298828125,10.0125513427734,-0.32561142578125
2.58258172479967,-0.474051928710937,10.036493359375,-0.32561142578125
2.58464654044637,-0.397437475585937,10.0029745361328,-0.349553442382812
2.58672697653578,-0.416591088867187,10.0556469726563,-0.3447650390625
2.58880741262518,-0.445321508789062,9.9981861328125,-0.36391865234375
2.59088784871459,-0.397437475585937,9.97424411621094,-0.397437475585937
2.59297038690903,-0.407014282226562,9.9981861328125,-0.387860668945312
2.59505292510348,-0.383072265625,9.99339772949219,-0.349553442382812
2.59713546329792,-0.387860668945312,9.99339772949219,-0.397437475585937
2.59923320461736,-0.397437475585937,10.0173397460938,-0.354341845703125
2.60133094593681,-0.45968671875,10.0221281494141,-0.3447650390625
2.60342868725625,-0.416591088867187,10.0125513427734,-0.4213794921875
2.60545895027708,-0.407014282226562,9.98860932617187,-0.411802685546875
2.60748921329792,-0.464475122070312,9.97424411621094,-0.320823022460937
2.60951947631875,-0.450109912109375,9.95987890625,-0.378283862304687
2.61154394127101,-0.445321508789062,9.96945571289062,-0.3447650390625
2.61356840622326,-0.483628735351562,9.98382092285156,-0.3447650390625
2.61559287117552,-0.450109912109375,9.96945571289062,-0.32561142578125
2.6176160927467,-0.45968671875,9.96466730957031,-0.292092602539062
2.61963931431788,-0.469263525390625,9.95509050292969,-0.354341845703125
2.62166253588906,-0.493205541992187,9.95987890625,-0.349553442382812
2.6236887958717,-0.435744702148437,9.98382092285156,-0.359130249023437
2.62571505585434,-0.435744702148437,10.0077629394531,-0.3064578125
2.62774131583698,-0.450109912109375,9.98860932617187,-0.407014282226562
2.6298345332849,-0.474051928710937,9.96945571289062,-0.397437475585937
2.63192775073282,-0.435744702148437,10.0125513427734,-0.4213794921875
2.63402096818073,-0.430956298828125,9.9981861328125,-0.387860668945312
2.63597670233872,-0.4979939453125,10.0029745361328,-0.469263525390625
2.6379324364967,-0.4979939453125,9.9981861328125,-0.430956298828125
2.63988817065469,-0.488417138671875,9.96466730957031,-0.378283862304687
2.6418471379941,-0.536301171875,9.95987890625,-0.349553442382812
2.64380610533351,-0.521935961914062,9.95987890625,-0.359130249023437
2.64576507267292,-0.512359155273437,9.95987890625,-0.311246215820312
2.64772290177448,-0.526724365234375,9.97424411621094,-0.316034619140625
2.64968073087605,-0.4979939453125,9.95509050292969,-0.3447650390625
2.65163855997761,-0.502782348632812,9.97424411621094,-0.378283862304687
2.65361409697848,-0.526724365234375,9.92636008300781,-0.277727392578125
2.65558963397935,-0.493205541992187,9.91678327636719,-0.277727392578125
2.65756517098022,-0.488417138671875,9.91199487304687,-0.2681505859375
2.65958506941772,-0.493205541992187,9.883264453125,-0.258573779296875
2.66160496785522,-0.493205541992187,9.9215716796875,-0.253785375976562
2.66362486629272,-0.507570751953125,9.90720646972656,-0.24899697265625
2.66572157766425,-0.47884033203125,9.89284125976562,-0.359130249023437
2.66781828903578,-0.4979939453125,9.93593688964844,-0.296881005859375
2.6699150004073,-0.45968671875,9.92636008300781,-0.349553442382812
2.67201397621026,-0.464475122070312,9.95030209960937,-0.354341845703125
2.67411295201321,-0.435744702148437,9.95509050292969,-0.335188232421875
2.67621192781616,-0.4213794921875,9.96945571289062,-0.426167895507812
2.6782897831764,-0.44053310546875,9.98382092285156,-0.373495458984375
2.68036763853665,-0.411802685546875,9.97424411621094,-0.387860668945312
2.68244549389689,-0.397437475585937,9.99339772949219,-0.397437475585937
2.68449416501234,-0.378283862304687,10.0317049560547,-0.359130249023437
2.68654283612779,-0.4213794921875,10.0460701660156,-0.36391865234375
2.68859150724325,-0.373495458984375,10.0077629394531,-0.36391865234375
2.69063238799411,-0.373495458984375,10.0412817626953,-0.392649072265625
2.69267326874498,-0.407014282226562,10.036493359375,-0.32561142578125
2.69471414949585,-0.3447650390625,10.0460701660156,-0.36391865234375
2.69675380840427,-0.378283862304687,10.0604353759766,-0.301669409179687
2.69879346731269,-0.354341845703125,10.0460701660156,-0.368707055664062
2.70083312622111,-0.387860668945312,10.0748005859375,-0.335188232421875
2.70287374091294,-0.378283862304687,10.0604353759766,-0.4213794921875
2.70491435560478,-0.354341845703125,10.0412817626953,-0.387860668945312
2.70695497029662,-0.392649072265625,10.0508585693359,-0.387860668945312
2.71109100925061,-0.474051928710937,9.94551369628906,-0.416591088867187
2.7152270482046,-0.521935961914062,9.93114848632812,-0.411802685546875
2.71936308715859,-0.565031591796875,9.96945571289062,-0.40222587890625
2.72140001223455,-0.579396801757812,9.98382092285156,-0.430956298828125
2.7234369373105,-0.59376201171875,9.98860932617187,-0.454898315429687
2.72547386238645,-0.63206923828125,10.0173397460938,-0.464475122070312
2.72750960164427,-0.627280834960937,9.9981861328125,-0.4213794921875
2.72954534090208,-0.612915625,10.0556469726563,-0.411802685546875
2.73158108015989,-0.608127221679687,9.9981861328125,-0.426167895507812
2.73361714504704,-0.608127221679687,10.0508585693359,-0.397437475585937
2.73565320993419,-0.598550415039062,9.9981861328125,-0.4213794921875
2.73768927482134,-0.603338818359375,9.99339772949219,-0.416591088867187
2.73972530428098,-0.5746083984375,9.98382092285156,-0.378283862304687
2.74176133374061,-0.5746083984375,10.0077629394531,-0.301669409179687
2.74379736320024,-0.560243188476563,9.97424411621094,-0.392649072265625
2.74586125100406,-0.588973608398437,9.98382092285156,-0.330399829101562
2.74792513880788,-0.512359155273437,9.97424411621094,-0.282515795898438
2.7499890266117,-0.560243188476563,9.98860932617187,-0.277727392578125
2.75201850930484,-0.512359155273437,9.96945571289062,-0.32561142578125
2.75404799199799,-0.512359155273437,9.97903251953125,-0.277727392578125
2.75607747469113,-0.488417138671875,9.97903251953125,-0.32561142578125
2.75810469089122,-0.474051928710937,9.94072529296875,-0.3447650390625
2.7601319070913,-0.445321508789062,9.96466730957031,-0.229843359375
2.76215912329139,-0.40222587890625,9.96945571289062,-0.301669409179687
2.7641855125058,-0.435744702148437,9.97903251953125,-0.229843359375
2.76621190172021,-0.407014282226562,9.91199487304687,-0.263362182617187
2.76823829093462,-0.416591088867187,9.9215716796875,-0.28730419921875
2.77026699167247,-0.373495458984375,9.91199487304687,-0.339976635742188
2.77229569241031,-0.373495458984375,9.93593688964844,-0.296881005859375
2.77432439314816,-0.44053310546875,9.93114848632812,-0.28730419921875
2.7763852187775,-0.349553442382812,9.93593688964844,-0.277727392578125
2.77844604440684,-0.349553442382812,9.93593688964844,-0.296881005859375
2.78050687003618,-0.36391865234375,9.91678327636719,-0.335188232421875
2.78253915356482,-0.3447650390625,9.9215716796875,-0.301669409179687
2.78457143709347,-0.36391865234375,9.95509050292969,-0.330399829101562
2.78660372062211,-0.378283862304687,9.92636008300781,-0.349553442382812
2.78863467559173,-0.392649072265625,9.90720646972656,-0.349553442382812
2.79066563056135,-0.40222587890625,9.91199487304687,-0.316034619140625
2.79269658553097,-0.387860668945312,9.93114848632812,-0.339976635742188
2.79472646183305,-0.368707055664062,9.90241806640625,-0.3447650390625
2.79675633813513,-0.378283862304687,9.98860932617187,-0.32561142578125
2.79878621443721,-0.387860668945312,9.93593688964844,-0.36391865234375
2.80081362253183,-0.397437475585937,9.94551369628906,-0.40222587890625
2.80284103062645,-0.392649072265625,9.9215716796875,-0.392649072265625
2.80486843872107,-0.435744702148437,9.95987890625,-0.3447650390625
2.80693079939815,-0.454898315429687,9.95509050292969,-0.373495458984375
2.80899316007524,-0.4213794921875,9.96466730957031,-0.368707055664062
2.81105552075232,-0.450109912109375,9.98860932617187,-0.378283862304687
2.81308839190032,-0.454898315429687,9.95509050292969,-0.354341845703125
2.81512126304833,-0.44053310546875,10.0221281494141,-0.445321508789062
2.81715413419633,-0.464475122070312,9.9981861328125,-0.407014282226562
2.81918768476057,-0.430956298828125,9.99339772949219,-0.349553442382812
2.8212212353248,-0.454898315429687,10.0317049560547,-0.397437475585937
2.82325478588904,-0.464475122070312,10.0125513427734,-0.445321508789062
2.82525256285301,-0.469263525390625,10.0412817626953,-0.368707055664062
2.82725033981699,-0.4213794921875,10.036493359375,-0.354341845703125
2.82924811678096,-0.445321508789062,10.0412817626953,-0.339976635742188
2.83120935500796,-0.416591088867187,10.0173397460938,-0.397437475585937
2.83317059323496,-0.450109912109375,10.0317049560547,-0.320823022460937
2.83513183146196,-0.4213794921875,10.0221281494141,-0.40222587890625
2.83716174210649,-0.450109912109375,10.0317049560547,-0.387860668945312
2.83919165275102,-0.44053310546875,10.0317049560547,-0.335188232421875
2.84122156339555,-0.4213794921875,10.0269165527344,-0.392649072265625
2.84325368541161,-0.435744702148437,9.97903251953125,-0.383072265625
2.84528580742767,-0.407014282226562,9.98860932617187,-0.359130249023437
2.84731792944373,-0.416591088867187,10.0221281494141,-0.3447650390625
2.84935011390553,-0.378283862304687,9.96945571289062,-0.354341845703125
2.85138229836734,-0.392649072265625,9.95509050292969,-0.383072265625
2.85341448282914,-0.387860668945312,9.99339772949219,-0.311246215820312
2.85544665123192,-0.426167895507812,9.99339772949219,-0.301669409179687
2.8574788196347,-0.378283862304687,10.0317049560547,-0.3447650390625
2.85951098803748,-0.426167895507812,9.98382092285156,-0.316034619140625
2.86154316343896,-0.4213794921875,9.96466730957031,-0.339976635742188
2.86357533884043,-0.4213794921875,9.98860932617187,-0.339976635742188
2.86560751424191,-0.416591088867187,9.9981861328125,-0.349553442382812
2.86768546145328,-0.430956298828125,9.99339772949219,-0.320823022460937
2.86976340866465,-0.44053310546875,9.97424411621094,-0.330399829101562
2.87184135587602,-0.392649072265625,9.99339772949219,-0.416591088867187
2.87388844241031,-0.435744702148437,9.9981861328125,-0.3447650390625
2.8759355289446,-0.430956298828125,9.99339772949219,-0.320823022460937
2.87798261547889,-0.416591088867187,9.97424411621094,-0.316034619140625
2.88003062866248,-0.392649072265625,10.0029745361328,-0.397437475585937
2.88207864184608,-0.44053310546875,10.0317049560547,-0.368707055664062
2.88412665502967,-0.416591088867187,10.0077629394531,-0.330399829101562
2.88617597441986,-0.407014282226562,10.0173397460938,-0.373495458984375
2.88822529381005,-0.450109912109375,10.0077629394531,-0.368707055664062
2.89027461320024,-0.4213794921875,9.98860932617187,-0.36391865234375
2.89232525523583,-0.450109912109375,10.0173397460938,-0.330399829101562
2.89437589727142,-0.435744702148437,10.0173397460938,-0.349553442382812
2.89642653930701,-0.474051928710937,10.0077629394531,-0.373495458984375
2.89849129890987,-0.44053310546875,10.036493359375,-0.383072265625
2.90055605851274,-0.426167895507812,10.0029745361328,-0.378283862304687
2.9026208181156,-0.488417138671875,10.0029745361328,-0.36391865234375
2.90466456816986,-0.430956298828125,9.96945571289062,-0.416591088867187
2.90670831822411,-0.469263525390625,9.98382092285156,-0.354341845703125
2.90875206827836,-0.454898315429687,9.95509050292969,-0.430956298828125
2.91079489043548,-0.445321508789062,10.0125513427734,-0.411802685546875
2.9128377125926,-0.454898315429687,9.9981861328125,-0.359130249023437
2.91488053474972,-0.454898315429687,9.98382092285156,-0.368707055664062
2.91692643020328,-0.435744702148437,9.99339772949219,-0.354341845703125
2.91897232565683,-0.430956298828125,9.98860932617187,-0.392649072265625
2.92101822111039,-0.416591088867187,9.98860932617187,-0.339976635742188
2.92306527818505,-0.430956298828125,9.98382092285156,-0.36391865234375
2.9251123352597,-0.407014282226562,9.98860932617187,-0.368707055664062
2.92715939233435,-0.416591088867187,9.95509050292969,-0.40222587890625
2.92922020260996,-0.411802685546875,9.95987890625,-0.383072265625
2.93128101288557,-0.454898315429687,9.96466730957031,-0.373495458984375
2.93334182316118,-0.426167895507812,9.95987890625,-0.368707055664062
2.93536690535518,-0.430956298828125,9.97424411621094,-0.349553442382812
2.93739198754919,-0.44053310546875,9.97903251953125,-0.383072265625
2.9394170697432,-0.411802685546875,9.96945571289062,-0.368707055664062
2.94143328040944,-0.40222587890625,9.98382092285156,-0.40222587890625
2.94344949107567,-0.435744702148437,9.93593688964844,-0.450109912109375
2.9454657017419,-0.426167895507812,9.97903251953125,-0.411802685546875
2.94747984849754,-0.430956298828125,9.94551369628906,-0.430956298828125
2.94949399525318,-0.407014282226562,9.93114848632812,-0.3447650390625
2.95150814200883,-0.387860668945312,10.0125513427734,-0.368707055664062
2.95352070364077,-0.435744702148437,9.95987890625,-0.368707055664062
2.95553326527272,-0.392649072265625,9.95987890625,-0.411802685546875
2.95754582690466,-0.383072265625,9.97424411621094,-0.36391865234375
2.95960138246022,-0.40222587890625,9.95509050292969,-0.407014282226562
2.96165693801577,-0.450109912109375,9.97424411621094,-0.368707055664062
2.96371249357133,-0.426167895507812,9.95030209960937,-0.359130249023437
2.96574433422888,-0.44053310546875,9.93593688964844,-0.36391865234375
2.96777617488643,-0.454898315429687,9.94551369628906,-0.392649072265625
2.96980801554399,-0.411802685546875,9.90720646972656,-0.359130249023437
2.97182810500796,-0.445321508789062,9.90241806640625,-0.392649072265625
2.97384819447194,-0.4213794921875,9.94072529296875,-0.426167895507812
2.97586828393591,-0.4213794921875,9.91199487304687,-0.378283862304687
2.9778764305288,-0.416591088867187,9.93593688964844,-0.316034619140625
2.97988457712168,-0.435744702148437,9.94551369628906,-0.407014282226562
2.98189272371456,-0.445321508789062,9.91199487304687,-0.392649072265625
2.98389899237775,-0.430956298828125,9.90241806640625,-0.373495458984375
2.98590526104095,-0.45968671875,9.94551369628906,-0.383072265625
2.98791152970414,-0.450109912109375,9.94072529296875,-0.40222587890625
2.98985796568504,-0.435744702148437,9.94551369628906,-0.392649072265625
2.99180440166594,-0.416591088867187,9.94072529296875,-0.368707055664062
2.99375083764685,-0.4213794921875,9.94072529296875,-0.387860668945312
2.99570260077619,-0.4213794921875,9.95987890625,-0.3447650390625
2.99765436390553,-0.464475122070312,9.98860932617187,-0.430956298828125
2.99960612703487,-0.464475122070312,10.0125513427734,-0.383072265625
3.00155864190032,-0.464475122070312,9.96945571289062,-0.430956298828125
3.00351115676577,-0.45968671875,10.0029745361328,-0.40222587890625
3.00546367163123,-0.445321508789062,9.95509050292969,-0.435744702148437
3.00741638712602,-0.435744702148437,9.99339772949219,-0.392649072265625
3.00936910262081,-0.450109912109375,9.95509050292969,-0.411802685546875
3.0113218181156,-0.435744702148437,9.99339772949219,-0.450109912109375
3.01327488929616,-0.450109912109375,9.9981861328125,-0.44053310546875
3.01522796047672,-0.416591088867187,10.0077629394531,-0.383072265625
3.01718103165727,-0.464475122070312,10.0221281494141,-0.445321508789062
3.01920185495371,-0.454898315429687,9.98382092285156,-0.4213794921875
3.02122267825015,-0.454898315429687,9.9981861328125,-0.330399829101562
3.0232435015466,-0.4213794921875,10.0221281494141,-0.464475122070312
3.02527021964555,-0.4213794921875,10.0173397460938,-0.4213794921875
3.02729693774451,-0.44053310546875,10.0029745361328,-0.4213794921875
3.02932365584347,-0.47884033203125,9.97903251953125,-0.483628735351562
3.03134280489132,-0.45968671875,9.98860932617187,-0.454898315429687
3.03336195393917,-0.430956298828125,10.0125513427734,-0.368707055664062
3.03538110298702,-0.445321508789062,9.9981861328125,-0.4213794921875
3.03736327031829,-0.45968671875,9.98860932617187,-0.430956298828125
3.03934543764957,-0.411802685546875,9.97424411621094,-0.349553442382812
3.04132760498084,-0.445321508789062,9.98860932617187,-0.339976635742188
3.0432825888133,-0.454898315429687,10.0412817626953,-0.445321508789062
3.04523757264577,-0.474051928710937,9.97424411621094,-0.373495458984375
3.04719255647823,-0.45968671875,10.0269165527344,-0.387860668945312
3.04914431635236,-0.435744702148437,10.0125513427734,-0.392649072265625
3.05109607622649,-0.426167895507812,9.96945571289062,-0.383072265625
3.05304783610062,-0.464475122070312,9.9981861328125,-0.411802685546875
3.0550568497725,-0.44053310546875,10.0029745361328,-0.435744702148437
3.05706586344437,-0.411802685546875,10.036493359375,-0.430956298828125
3.05907487711625,-0.426167895507812,10.0125513427734,-0.4213794921875
3.06108330940791,-0.407014282226562,9.96945571289062,-0.383072265625
3.06309174169958,-0.392649072265625,9.97903251953125,-0.373495458984375
3.06510017399125,-0.445321508789062,10.0029745361328,-0.4213794921875
3.06710932036712,-0.435744702148437,9.97424411621094,-0.407014282226562
3.06911846674299,-0.45968671875,10.0317049560547,-0.407014282226562
3.07112761311885,-0.435744702148437,10.0077629394531,-0.40222587890625
3.07308831830549,-0.45968671875,9.95987890625,-0.44053310546875
3.07504902349212,-0.430956298828125,9.97903251953125,-0.40222587890625
3.07700972867875,-0.430956298828125,9.95030209960937,-0.383072265625
3.07895784488969,-0.445321508789062,9.9981861328125,-0.416591088867187
3.08090596110063,-0.44053310546875,9.95509050292969,-0.392649072265625
3.08285407731157,-0.454898315429687,9.96945571289062,-0.397437475585937
3.08486361333587,-0.464475122070312,9.96945571289062,-0.354341845703125
3.08687314936018,-0.464475122070312,9.97903251953125,-0.335188232421875
3.08888268538448,-0.454898315429687,9.93114848632812,-0.40222587890625
3.09089135671695,-0.4213794921875,9.99339772949219,-0.378283862304687
3.09290002804941,-0.454898315429687,9.95987890625,-0.464475122070312
3.09490869938188,-0.407014282226562,9.94551369628906,-0.469263525390625
3.09691178249819,-0.435744702148437,9.98382092285156,-0.40222587890625
3.09891486561451,-0.469263525390625,9.93593688964844,-0.450109912109375
3.10091794873083,-0.445321508789062,9.94551369628906,-0.411802685546875
3.10288073974646,-0.469263525390625,9.96945571289062,-0.469263525390625
3.10484353076208,-0.493205541992187,9.96466730957031,-0.435744702148437
3.10680632177771,-0.464475122070312,10.0173397460938,-0.407014282226562
3.10876834109195,-0.526724365234375,10.0173397460938,-0.301669409179687
3.11073036040618,-0.526724365234375,9.98860932617187,-0.359130249023437
3.11269237972042,-0.474051928710937,10.0029745361328,-0.40222587890625
3.11471898149994,-0.4979939453125,9.95509050292969,-0.407014282226562
3.11674558327945,-0.521935961914062,9.92636008300781,-0.373495458984375
3.11877218505897,-0.531512768554687,9.98382092285156,-0.339976635742188
3.12079972336192,-0.47884033203125,9.94072529296875,-0.335188232421875
3.12282726166487,-0.47884033203125,9.91199487304687,-0.296881005859375
3.12485479996782,-0.454898315429687,9.93593688964844,-0.2681505859375
3.12688328781504,-0.47884033203125,9.94072529296875,-0.296881005859375
3.12891177566227,-0.464475122070312,9.93114848632812,-0.36391865234375
3.13094026350949,-0.488417138671875,9.93593688964844,-0.292092602539062
3.13290089881766,-0.4979939453125,9.93593688964844,-0.3447650390625
3.13486153412582,-0.464475122070312,9.94551369628906,-0.383072265625
3.13682216943398,-0.4979939453125,9.95987890625,-0.4213794921875
3.13875474755898,-0.47884033203125,9.94551369628906,-0.373495458984375
3.14068732568398,-0.426167895507812,9.97424411621094,-0.445321508789062
3.14261990380898,-0.44053310546875,10.0029745361328,-0.4213794921875
3.1446182025286,-0.44053310546875,9.95030209960937,-0.426167895507812
3.14661650124821,-0.435744702148437,10.0221281494141,-0.426167895507812
3.14861479996783,-0.430956298828125,9.98382092285156,-0.373495458984375
3.15061560693398,-0.411802685546875,10.0029745361328,-0.430956298828125
3.15261641390012,-0.44053310546875,10.0460701660156,-0.40222587890625
3.15461722086627,-0.445321508789062,9.98860932617187,-0.368707055664062
3.1566187275937,-0.383072265625,10.036493359375,-0.397437475585937
3.15862023432113,-0.40222587890625,10.0221281494141,-0.359130249023437
3.16062174104856,-0.373495458984375,10.0412817626953,-0.430956298828125
3.16258366476818,-0.339976635742188,10.036493359375,-0.426167895507812
3.1645455884878,-0.40222587890625,10.0460701660156,-0.430956298828125
3.16650751220742,-0.383072265625,10.0508585693359,-0.450109912109375
3.16846993484197,-0.387860668945312,10.0795889892578,-0.474051928710937
3.17043235747651,-0.373495458984375,10.0700121826172,-0.521935961914062
3.17239478011106,-0.378283862304687,10.0604353759766,-0.545877978515625
3.17442381060151,-0.383072265625,10.0269165527344,-0.4979939453125
3.17645284109196,-0.373495458984375,10.036493359375,-0.44053310546875
3.17848187158241,-0.407014282226562,10.0077629394531,-0.512359155273437
3.18051686159977,-0.45968671875,9.97424411621094,-0.488417138671875
3.18255185161714,-0.430956298828125,9.9981861328125,-0.512359155273437
3.1845868416345,-0.454898315429687,9.97424411621094,-0.541089575195312
3.18662367203815,-0.45968671875,10.0077629394531,-0.521935961914062
3.18866050244179,-0.521935961914062,9.95509050292969,-0.47884033203125
3.19069733284544,-0.51714755859375,9.94551369628906,-0.526724365234375
3.19265604920829,-0.598550415039062,9.93593688964844,-0.541089575195312
3.19461476557113,-0.598550415039062,10.0029745361328,-0.502782348632812
3.19657348193398,-0.608127221679687,10.0029745361328,-0.502782348632812
3.1985292588437,-0.622492431640625,9.9981861328125,-0.526724365234375
3.20048503575343,-0.584185205078125,10.0173397460938,-0.464475122070312
3.20244081266315,-0.608127221679687,9.98382092285156,-0.536301171875
3.20445899213364,-0.588973608398437,9.98860932617187,-0.483628735351562
3.20647717160412,-0.59376201171875,10.0173397460938,-0.450109912109375
3.20849535107461,-0.646434448242187,9.9981861328125,-0.450109912109375
3.21053542106159,-0.627280834960937,10.0029745361328,-0.426167895507812
3.21257549104857,-0.59376201171875,9.99339772949219,-0.44053310546875
3.21461556103554,-0.588973608398437,9.97424411621094,-0.416591088867187
3.21665753781506,-0.55545478515625,9.98860932617187,-0.411802685546875
3.21869951459457,-0.545877978515625,9.95030209960937,-0.411802685546875
3.22074149137408,-0.579396801757812,9.93593688964844,-0.36391865234375
3.22273130702079,-0.560243188476563,9.96945571289062,-0.330399829101562
3.22472112266749,-0.536301171875,9.95030209960937,-0.373495458984375
3.22671093831419,-0.545877978515625,9.95509050292969,-0.335188232421875
3.22868523367009,-0.47884033203125,9.95987890625,-0.359130249023437
3.230659529026,-0.51714755859375,9.89284125976562,-0.316034619140625
3.2326338243819,-0.493205541992187,9.95030209960937,-0.359130249023437
3.23464551763277,-0.474051928710937,9.94072529296875,-0.282515795898438
3.23665721088363,-0.454898315429687,9.91199487304687,-0.383072265625
3.2386689041345,-0.4213794921875,9.92636008300781,-0.339976635742188
3.24068109141749,-0.430956298828125,9.92636008300781,-0.335188232421875
3.24269327870047,-0.407014282226562,9.90720646972656,-0.292092602539062
3.24470546598346,-0.397437475585937,9.9215716796875,-0.320823022460937
3.24671800960325,-0.445321508789062,9.90241806640625,-0.28730419921875
3.24873055322305,-0.40222587890625,9.90241806640625,-0.316034619140625
3.25074309684284,-0.40222587890625,9.91678327636719,-0.330399829101562
3.25270621110065,-0.407014282226562,9.90720646972656,-0.368707055664062
3.25466932535846,-0.387860668945312,9.94072529296875,-0.330399829101562
3.25663243961628,-0.430956298828125,9.94072529296875,-0.3447650390625
3.2585935415043,-0.383072265625,9.9215716796875,-0.316034619140625
3.26055464339232,-0.397437475585937,9.87368764648437,-0.339976635742188
3.26251574528034,-0.407014282226562,9.93593688964844,-0.339976635742188
3.26454049745048,-0.407014282226562,9.90241806640625,-0.36391865234375
3.26656524962062,-0.378283862304687,9.91199487304687,-0.349553442382812
3.26859000179076,-0.383072265625,9.89284125976562,-0.3447650390625
3.2706150321727,-0.416591088867187,9.91678327636719,-0.359130249023437
3.27264006255464,-0.387860668945312,9.94551369628906,-0.320823022460937
3.27466509293659,-0.450109912109375,9.98382092285156,-0.416591088867187
3.27668924571436,-0.435744702148437,9.95030209960937,-0.373495458984375
3.27871339849214,-0.435744702148437,10.0029745361328,-0.387860668945312
3.28073755126992,-0.493205541992187,9.96945571289062,-0.47884033203125
3.28269771240273,-0.483628735351562,9.95987890625,-0.397437475585937
3.28465787353554,-0.4979939453125,9.98382092285156,-0.383072265625
3.28661803466835,-0.488417138671875,9.97424411621094,-0.445321508789062
3.28857645860498,-0.464475122070312,10.0077629394531,-0.445321508789062
3.29053488254162,-0.483628735351562,10.0029745361328,-0.416591088867187
3.29249330647825,-0.488417138671875,10.0125513427734,-0.335188232421875
3.29452328336627,-0.45968671875,10.0125513427734,-0.387860668945312
3.29655326025429,-0.488417138671875,10.0125513427734,-0.4213794921875
3.29858323714231,-0.536301171875,10.0269165527344,-0.373495458984375
3.3006158620338,-0.47884033203125,10.0029745361328,-0.387860668945312
3.3026484869253,-0.469263525390625,10.0412817626953,-0.392649072265625
3.30468111181679,-0.488417138671875,10.0125513427734,-0.397437475585937
3.30671501025429,-0.493205541992187,10.0317049560547,-0.416591088867187
3.30874890869179,-0.483628735351562,10.0221281494141,-0.469263525390625
3.31078280712929,-0.502782348632812,9.96466730957031,-0.407014282226562
3.31274958034978,-0.454898315429687,9.9981861328125,-0.349553442382812
3.31471635357026,-0.488417138671875,10.0077629394531,-0.368707055664062
3.31668312679075,-0.469263525390625,10.0269165527344,-0.36391865234375
3.31864495307113,-0.426167895507812,9.97903251953125,-0.392649072265625
3.32060677935151,-0.450109912109375,10.0029745361328,-0.4213794921875
3.32256860563189,-0.483628735351562,9.99339772949219,-0.464475122070312
3.32459828434283,-0.483628735351562,10.0125513427734,-0.426167895507812
3.32662796305377,-0.483628735351562,10.0173397460938,-0.383072265625
3.32865764176471,-0.435744702148437,9.98860932617187,-0.426167895507812
3.33068841954248,-0.454898315429687,9.98382092285156,-0.464475122070312
3.33271919732026,-0.450109912109375,10.0077629394531,-0.383072265625
3.33474997509803,-0.483628735351562,10.0221281494141,-0.426167895507812
3.33678055224647,-0.445321508789062,10.0077629394531,-0.445321508789062
3.33881112939491,-0.469263525390625,10.0269165527344,-0.378283862304687
3.34084170654334,-0.45968671875,10.036493359375,-0.430956298828125
3.34279154324039,-0.464475122070312,10.0077629394531,-0.435744702148437
3.34474137993744,-0.469263525390625,10.0077629394531,-0.387860668945312
3.34669121663449,-0.493205541992187,10.0221281494141,-0.40222587890625
3.348639474664,-0.445321508789062,10.0317049560547,-0.40222587890625
3.35058773269352,-0.45968671875,10.0173397460938,-0.416591088867187
3.35253599072303,-0.488417138671875,9.9981861328125,-0.4213794921875
3.35452989078814,-0.445321508789062,10.0125513427734,-0.430956298828125
3.35652379085324,-0.445321508789062,10.0077629394531,-0.445321508789062
3.35851769091835,-0.435744702148437,10.0173397460938,-0.373495458984375
3.3605156650937,-0.435744702148437,10.0221281494141,-0.45968671875
3.36251363926904,-0.445321508789062,10.0077629394531,-0.4213794921875
3.36451161344439,-0.454898315429687,9.98860932617187,-0.454898315429687
3.36650972357894,-0.464475122070312,9.94072529296875,-0.426167895507812
3.36850783371349,-0.483628735351562,9.97424411621094,-0.387860668945312
3.37050594384804,-0.488417138671875,10.0173397460938,-0.397437475585937
3.37249087245047,-0.502782348632812,9.9981861328125,-0.474051928710937
3.3744758010529,-0.469263525390625,9.96945571289062,-0.430956298828125
3.37646072965534,-0.488417138671875,9.97903251953125,-0.411802685546875
3.37844764664752,-0.493205541992187,9.9981861328125,-0.416591088867187
3.38043456363971,-0.507570751953125,9.97903251953125,-0.450109912109375
3.3824214806319,-0.483628735351562,9.98382092285156,-0.4213794921875
3.38444958837929,-0.464475122070312,9.96945571289062,-0.426167895507812
3.38647769612669,-0.464475122070312,9.96466730957031,-0.4213794921875
3.38850580387408,-0.45968671875,9.9981861328125,-0.407014282226562
3.390536576118,-0.44053310546875,9.95030209960937,-0.430956298828125
3.39256734836193,-0.502782348632812,9.97424411621094,-0.450109912109375
3.39459812060585,-0.488417138671875,9.96466730957031,-0.44053310546875
3.39662629779769,-0.469263525390625,9.96466730957031,-0.445321508789062
3.39865447498953,-0.507570751953125,9.9981861328125,-0.407014282226562
3.40068265218137,-0.502782348632812,9.96945571289062,-0.383072265625
3.40264321533241,-0.4979939453125,9.93114848632812,-0.4213794921875
3.40460377848345,-0.474051928710937,9.91678327636719,-0.411802685546875
3.40656434163449,-0.474051928710937,9.94551369628906,-0.397437475585937
3.4085239963654,-0.45968671875,9.98382092285156,-0.392649072265625
3.4104836510963,-0.45968671875,9.94551369628906,-0.373495458984375
3.4124433058272,-0.483628735351562,9.95030209960937,-0.359130249023437
3.41446464035411,-0.464475122070312,9.96466730957031,-0.359130249023437
3.41648597488102,-0.483628735351562,9.99339772949219,-0.397437475585937
3.41850730940793,-0.454898315429687,9.95987890625,-0.392649072265625
3.42052813699039,-0.45968671875,9.96945571289062,-0.430956298828125
3.42254896457286,-0.493205541992187,9.95987890625,-0.32561142578125
3.42456979215532,-0.411802685546875,9.95030209960937,-0.411802685546875
3.4265722105581,-0.474051928710937,9.95509050292969,-0.416591088867187
3.42857462896088,-0.469263525390625,9.96466730957031,-0.36391865234375
3.43057704736366,-0.464475122070312,9.95030209960937,-0.36391865234375
3.43253416346608,-0.474051928710937,9.92636008300781,-0.392649072265625
3.43449127956851,-0.47884033203125,9.94072529296875,-0.4213794921875
3.43644839567094,-0.454898315429687,9.97424411621094,-0.40222587890625
3.43832961984629,-0.483628735351562,9.95987890625,-0.359130249023437
3.44021084402164,-0.474051928710937,9.95030209960937,-0.411802685546875
3.44209206819698,-0.435744702148437,9.97424411621094,-0.387860668945312
3.44404180116139,-0.45968671875,9.95509050292969,-0.435744702148437
3.4459915341258,-0.483628735351562,9.94551369628906,-0.368707055664062
3.44794126709021,-0.454898315429687,9.95030209960937,-0.373495458984375
3.44989147173431,-0.44053310546875,9.9215716796875,-0.416591088867187
3.45184167637841,-0.483628735351562,9.95030209960937,-0.36391865234375
3.4537918810225,-0.488417138671875,9.95987890625,-0.373495458984375
3.45574221717702,-0.512359155273437,9.97903251953125,-0.359130249023437
3.45769255333153,-0.474051928710937,9.94551369628906,-0.392649072265625
3.45964288948604,-0.474051928710937,9.95030209960937,-0.40222587890625
3.46159320817094,-0.512359155273437,9.94072529296875,-0.397437475585937
3.46354352685583,-0.4979939453125,9.94551369628906,-0.387860668945312
3.46549384554073,-0.4979939453125,9.97424411621094,-0.373495458984375
3.4674436966692,-0.483628735351562,9.95030209960937,-0.411802685546875
3.46939354779767,-0.47884033203125,9.94551369628906,-0.40222587890625
3.47134339892614,-0.493205541992187,9.97903251953125,-0.387860668945312
3.47335891444264,-0.502782348632812,9.95987890625,-0.378283862304687
3.47537442995913,-0.4979939453125,10.0269165527344,-0.378283862304687
3.47738994547563,-0.474051928710937,9.9981861328125,-0.469263525390625
3.47938207302554,-0.493205541992187,9.97903251953125,-0.435744702148437
3.48137420057546,-0.464475122070312,10.0029745361328,-0.435744702148437
3.48336632812537,-0.526724365234375,10.0077629394531,-0.4213794921875
3.48533059548648,-0.512359155273437,10.0125513427734,-0.4213794921875
3.4872948628476,-0.4979939453125,9.98382092285156,-0.392649072265625
3.48925913020871,-0.474051928710937,10.0317049560547,-0.392649072265625
3.4912182222226,-0.493205541992187,10.0029745361328,-0.407014282226562
3.49317731423649,-0.507570751953125,10.0077629394531,-0.454898315429687
3.49513640625037,-0.488417138671875,10.0077629394531,-0.359130249023437
3.49709486783892,-0.51714755859375,9.9981861328125,-0.474051928710937
3.49905332942746,-0.502782348632812,10.0173397460938,-0.445321508789062
3.501011791016,-0.512359155273437,9.9981861328125,-0.383072265625
3.503032072266,-0.488417138671875,10.0460701660156,-0.392649072265625
3.505052353516,-0.483628735351562,10.0173397460938,-0.40222587890625
3.507072634766,-0.4979939453125,10.0029745361328,-0.392649072265625
3.50911037185368,-0.502782348632812,9.99339772949219,-0.426167895507812
3.51114810894136,-0.454898315429687,10.0317049560547,-0.397437475585937
3.51318584602903,-0.45968671875,10.0221281494141,-0.387860668945312
3.51516470692313,-0.426167895507812,10.0317049560547,-0.44053310546875
3.51714356781723,-0.474051928710937,10.0125513427734,-0.397437475585937
3.51912242871133,-0.435744702148437,10.0269165527344,-0.47884033203125
3.52110127788667,-0.464475122070312,10.036493359375,-0.407014282226562
3.52308012706202,-0.47884033203125,9.98382092285156,-0.454898315429687
3.52505897623737,-0.47884033203125,10.0556469726563,-0.464475122070312
3.52703876996567,-0.464475122070312,10.0077629394531,-0.416591088867187
3.52901856369396,-0.445321508789062,10.0221281494141,-0.450109912109375
3.53099835742226,-0.450109912109375,10.0173397460938,-0.44053310546875
3.53302056304292,-0.4979939453125,9.9981861328125,-0.450109912109375
3.53504276866358,-0.488417138671875,10.0221281494141,-0.454898315429687
3.53706497428424,-0.44053310546875,9.98382092285156,-0.426167895507812
3.53908591297782,-0.430956298828125,10.0077629394531,-0.383072265625
3.54110685167139,-0.474051928710937,9.97903251953125,-0.40222587890625
3.54312779036497,-0.464475122070312,10.0077629394531,-0.426167895507812
3.54508702539101,-0.445321508789062,10.0125513427734,-0.378283862304687
3.54704626041705,-0.474051928710937,10.0077629394531,-0.430956298828125
3.5490054954431,-0.488417138671875,9.95030209960937,-0.368707055664062
3.55096278700126,-0.464475122070312,9.9981861328125,-0.368707055664062
3.55292007855942,-0.474051928710937,10.0029745361328,-0.383072265625
3.55487737011758,-0.44053310546875,9.97903251953125,-0.430956298828125
3.55683398339883,-0.435744702148437,9.98382092285156,-0.3447650390625
3.55879059668008,-0.469263525390625,10.0173397460938,-0.387860668945312
3.56074720996133,-0.47884033203125,9.97424411621094,-0.392649072265625
3.56277141558199,-0.464475122070312,9.97424411621094,-0.40222587890625
3.56479562120265,-0.47884033203125,9.97424411621094,-0.44053310546875
3.56681982682331,-0.493205541992187,9.97424411621094,-0.4213794921875
3.56884479372869,-0.464475122070312,9.9981861328125,-0.44053310546875
3.57086976063407,-0.469263525390625,9.98860932617187,-0.474051928710937
3.57289472753945,-0.47884033203125,9.98382092285156,-0.450109912109375
3.57485291840316,-0.536301171875,9.96466730957031,-0.445321508789062
3.57681110926688,-0.512359155273437,9.96466730957031,-0.40222587890625
3.5787693001306,-0.4979939453125,9.97424411621094,-0.40222587890625
3.58072712000907,-0.521935961914062,9.93114848632812,-0.378283862304687
3.58268493988754,-0.512359155273437,9.96945571289062,-0.349553442382812
3.58464275976601,-0.507570751953125,9.95030209960937,-0.383072265625
3.58659953483112,-0.541089575195312,9.94072529296875,-0.282515795898438
3.58855630989622,-0.4979939453125,9.95030209960937,-0.339976635742188
3.59051308496132,-0.512359155273437,9.93114848632812,-0.311246215820312
3.59253729633285,-0.512359155273437,9.92636008300781,-0.301669409179687
3.59456150770438,-0.521935961914062,9.95030209960937,-0.320823022460937
3.59658571907591,-0.507570751953125,9.93593688964844,-0.311246215820312
3.59861264822087,-0.488417138671875,9.92636008300781,-0.28730419921875
3.60063957736584,-0.502782348632812,9.93593688964844,-0.335188232421875
3.6026665065108,-0.4979939453125,9.96466730957031,-0.368707055664062
3.60462737565143,-0.531512768554687,9.96945571289062,-0.292092602539062
3.60658824479205,-0.4979939453125,9.94072529296875,-0.311246215820312
3.60854911393267,-0.521935961914062,9.9981861328125,-0.339976635742188
3.61050806239188,-0.4979939453125,9.98382092285156,-0.349553442382812
3.61246701085108,-0.4979939453125,9.97424411621094,-0.378283862304687
3.61442595931028,-0.450109912109375,9.96945571289062,-0.416591088867187
3.6163847643233,-0.44053310546875,9.9981861328125,-0.349553442382812
3.61834356933633,-0.45968671875,10.0221281494141,-0.387860668945312
3.62030237434935,-0.450109912109375,10.0221281494141,-0.3447650390625
3.62232471658025,-0.40222587890625,9.97903251953125,-0.316034619140625
3.62434705881115,-0.45968671875,10.0125513427734,-0.36391865234375
3.62636940104206,-0.426167895507812,10.0317049560547,-0.330399829101562
3.62839768196654,-0.4213794921875,10.0317049560547,-0.359130249023437
3.63042596289102,-0.4213794921875,10.0221281494141,-0.392649072265625
3.63245424381549,-0.4213794921875,10.036493359375,-0.411802685546875
3.63440711556029,-0.411802685546875,10.0700121826172,-0.454898315429687
3.63635998730508,-0.411802685546875,10.0412817626953,-0.430956298828125
3.63831285904987,-0.426167895507812,10.0652237792969,-0.450109912109375
3.64026301757851,-0.378283862304687,10.0556469726563,-0.483628735351562
3.64221317610716,-0.387860668945312,10.0795889892578,-0.483628735351562
3.64416333463581,-0.44053310546875,10.0269165527344,-0.44053310546875
3.64611172341619,-0.44053310546875,10.0269165527344,-0.521935961914062
3.64806011219657,-0.4213794921875,10.0460701660156,-0.40222587890625
3.65000850097695,-0.435744702148437,10.0077629394531,-0.450109912109375
3.65201392480508,-0.4979939453125,9.96466730957031,-0.450109912109375
3.6540193486332,-0.469263525390625,9.94551369628906,-0.47884033203125
3.65602477246133,-0.51714755859375,9.96945571289062,-0.411802685546875
3.65803012684501,-0.55545478515625,10.0029745361328,-0.45968671875
3.66003548122869,-0.55545478515625,9.97424411621094,-0.411802685546875
3.66204083561237,-0.541089575195312,9.96945571289062,-0.450109912109375
3.66399672092053,-0.531512768554687,9.9981861328125,-0.397437475585937
3.6659526062287,-0.584185205078125,10.0077629394531,-0.531512768554687
3.66790849153686,-0.531512768554687,9.98382092285156,-0.426167895507812
3.6698467031254,-0.521935961914062,10.0125513427734,-0.44053310546875
3.67178491471394,-0.565031591796875,10.0077629394531,-0.426167895507812
3.67372312630248,-0.569819995117188,9.97424411621094,-0.411802685546875
3.67566219032157,-0.536301171875,9.99339772949219,-0.426167895507812
3.67760125434067,-0.541089575195312,9.95509050292969,-0.368707055664062
3.67954031835977,-0.541089575195312,9.97424411621094,-0.430956298828125
3.68153974641967,-0.4979939453125,10.0125513427734,-0.339976635742188
3.68353917447956,-0.560243188476563,9.96945571289062,-0.32561142578125
3.68553860253946,-0.55545478515625,9.95987890625,-0.3447650390625
3.68761335807331,-0.588973608398437,9.9981861328125,-0.426167895507812
3.68968811360717,-0.51714755859375,9.95030209960937,-0.430956298828125
3.69176286914102,-0.51714755859375,9.98860932617187,-0.378283862304687
3.69379625043442,-0.521935961914062,9.91199487304687,-0.397437475585937
3.69582963172783,-0.507570751953125,9.93593688964844,-0.397437475585937
3.69786301302123,-0.493205541992187,9.95987890625,-0.430956298828125
3.69989510438407,-0.469263525390625,9.9215716796875,-0.335188232421875
3.70192719574692,-0.450109912109375,9.90720646972656,-0.3447650390625
3.70395928710977,-0.469263525390625,9.98860932617187,-0.368707055664062
3.70599055674953,-0.469263525390625,9.93593688964844,-0.387860668945312
3.70802182638928,-0.430956298828125,9.91199487304687,-0.3447650390625
3.71005309602904,-0.378283862304687,9.94551369628906,-0.373495458984375
3.71208439615925,-0.387860668945312,9.90720646972656,-0.3447650390625
3.71411569628946,-0.426167895507812,9.93114848632812,-0.368707055664062
3.71614699641967,-0.407014282226562,9.92636008300781,-0.383072265625
3.71817818793442,-0.416591088867187,9.93593688964844,-0.349553442382812
3.72020937944918,-0.383072265625,9.95509050292969,-0.339976635742188
3.72224057096394,-0.378283862304687,9.95509050292969,-0.349553442382812
3.72420506206637,-0.4213794921875,9.94072529296875,-0.359130249023437
3.7261695531688,-0.392649072265625,9.93593688964844,-0.407014282226562
3.72813404427123,-0.359130249023437,9.92636008300781,-0.349553442382812
3.73215228059936,-0.474051928710937,9.93593688964844,-0.330399829101562
3.73617051692748,-0.464475122070312,9.98860932617187,-0.373495458984375
3.74018875325561,-0.47884033203125,9.98860932617187,-0.40222587890625
3.74221489008287,-0.483628735351562,9.99339772949219,-0.378283862304687
3.74424102691012,-0.4979939453125,9.95987890625,-0.354341845703125
3.74626716373738,-0.454898315429687,9.98860932617187,-0.335188232421875
3.74829343674085,-0.454898315429687,10.0173397460938,-0.387860668945312
3.75031970974432,-0.493205541992187,9.99339772949219,-0.320823022460937
3.7523459827478,-0.4979939453125,10.0125513427734,-0.392649072265625
3.75437240549085,-0.502782348632812,9.99339772949219,-0.373495458984375
3.75639882823391,-0.541089575195312,10.0077629394531,-0.378283862304687
3.75842525097696,-0.507570751953125,10.0125513427734,-0.397437475585937
3.76038613606811,-0.493205541992187,10.0125513427734,-0.397437475585937
3.76234702115926,-0.526724365234375,10.0412817626953,-0.378283862304687
3.7643079062504,-0.531512768554687,10.0173397460938,-0.407014282226562
3.76634805262627,-0.483628735351562,10.0125513427734,-0.378283862304687
3.76838819900214,-0.502782348632812,9.99339772949219,-0.40222587890625
3.77042834537801,-0.464475122070312,9.98860932617187,-0.368707055664062
3.77247236295613,-0.536301171875,10.0221281494141,-0.330399829101562
3.77451638053426,-0.4979939453125,10.0412817626953,-0.383072265625
3.77656039811238,-0.483628735351562,10.0029745361328,-0.411802685546875
3.77860589192748,-0.45968671875,10.036493359375,-0.378283862304687
3.78065138574259,-0.502782348632812,9.96466730957031,-0.383072265625
3.78269687955769,-0.469263525390625,9.98860932617187,-0.359130249023437
3.78467623220526,-0.464475122070312,10.0125513427734,-0.378283862304687
3.78665558485283,-0.483628735351562,9.97424411621094,-0.36391865234375
3.7886349375004,-0.51714755859375,9.9981861328125,-0.311246215820312
3.79061087098564,-0.47884033203125,9.9981861328125,-0.349553442382812
3.79258680447088,-0.469263525390625,10.0269165527344,-0.430956298828125
3.79456273795613,-0.45968671875,10.0317049560547,-0.339976635742188
3.79658186816446,-0.464475122070312,10.0317049560547,-0.426167895507812
3.7986009983728,-0.454898315429687,10.036493359375,-0.392649072265625
3.80062012858113,-0.44053310546875,10.0173397460938,-0.354341845703125
3.80264003287801,-0.47884033203125,10.0556469726563,-0.407014282226562
3.80465993717488,-0.430956298828125,10.0269165527344,-0.36391865234375
3.80667984147176,-0.430956298828125,10.0556469726563,-0.397437475585937
3.8086997061636,-0.454898315429687,10.0556469726563,-0.36391865234375
3.81071957085544,-0.45968671875,10.0556469726563,-0.32561142578125
3.81273943554728,-0.430956298828125,9.98382092285156,-0.373495458984375
3.81476073828165,-0.44053310546875,10.0077629394531,-0.383072265625
3.81678204101603,-0.450109912109375,10.0077629394531,-0.40222587890625
3.8188033437504,-0.435744702148437,10.0460701660156,-0.387860668945312
3.8207685906037,-0.435744702148437,10.0269165527344,-0.36391865234375
3.822733837457,-0.45968671875,10.0269165527344,-0.354341845703125
3.8246990843103,-0.44053310546875,10.0269165527344,-0.416591088867187
3.82672659331638,-0.445321508789062,10.0077629394531,-0.430956298828125
3.82875410232246,-0.45968671875,10.036493359375,-0.416591088867187
3.83078161132853,-0.44053310546875,10.0221281494141,-0.354341845703125
3.83280784299086,-0.483628735351562,10.0077629394531,-0.383072265625
3.83483407465318,-0.47884033203125,10.0173397460938,-0.435744702148437
3.83686030631551,-0.45968671875,9.97903251953125,-0.407014282226562
3.83888744466186,-0.450109912109375,10.0269165527344,-0.450109912109375
3.84091458300822,-0.483628735351562,10.0125513427734,-0.349553442382812
3.84294172135457,-0.47884033203125,10.0412817626953,-0.383072265625
3.84496461143704,-0.450109912109375,9.97903251953125,-0.387860668945312
3.8469875015195,-0.430956298828125,10.0125513427734,-0.387860668945312
3.84901039160196,-0.47884033203125,10.0029745361328,-0.3447650390625
3.85096980740058,-0.47884033203125,9.98860932617187,-0.330399829101562
3.85292922319919,-0.469263525390625,10.0125513427734,-0.378283862304687
3.8548886389978,-0.4979939453125,10.0221281494141,-0.339976635742188
3.85691396527818,-0.493205541992187,9.9981861328125,-0.392649072265625
3.85893929155856,-0.44053310546875,9.97424411621094,-0.32561142578125
3.86096461783895,-0.435744702148437,9.97424411621094,-0.397437475585937
3.86299070258287,-0.445321508789062,9.96945571289062,-0.383072265625
3.86501678732679,-0.435744702148437,9.97424411621094,-0.349553442382812
3.86704287207072,-0.450109912109375,9.9981861328125,-0.349553442382812
3.86906920442749,-0.450109912109375,9.97903251953125,-0.368707055664062
3.87109553678426,-0.47884033203125,10.0029745361328,-0.368707055664062
3.87312186914103,-0.430956298828125,10.0125513427734,-0.411802685546875
3.87514911425822,-0.445321508789062,9.95987890625,-0.387860668945312
3.8771763593754,-0.450109912109375,10.0317049560547,-0.359130249023437
3.87920360449259,-0.464475122070312,9.96466730957031,-0.373495458984375
3.88116604882853,-0.45968671875,9.96945571289062,-0.32561142578125
3.88312849316446,-0.44053310546875,9.96945571289062,-0.3447650390625
3.8850909375004,-0.445321508789062,9.98382092285156,-0.40222587890625
3.88711926009154,-0.47884033203125,9.96466730957031,-0.411802685546875
3.88914758268269,-0.469263525390625,9.98860932617187,-0.373495458984375
3.89117590527383,-0.488417138671875,9.9981861328125,-0.4213794921875
3.89320431977036,-0.47884033203125,10.0221281494141,-0.40222587890625
3.89523273426689,-0.4979939453125,9.99339772949219,-0.368707055664062
3.89726114876341,-0.483628735351562,9.96466730957031,-0.407014282226562
3.89929040657591,-0.507570751953125,9.97424411621094,-0.450109912109375
3.90131966438841,-0.47884033203125,9.9981861328125,-0.373495458984375
3.90334892220091,-0.483628735351562,10.0029745361328,-0.36391865234375
3.90537860991792,-0.474051928710937,10.0221281494141,-0.4213794921875
3.90740829763494,-0.521935961914062,9.98382092285156,-0.387860668945312
3.90943798535195,-0.493205541992187,9.98860932617187,-0.392649072265625
3.91140160894136,-0.493205541992187,9.98860932617187,-0.40222587890625
3.91336523253077,-0.526724365234375,10.0077629394531,-0.416591088867187
3.91532885612018,-0.4979939453125,9.99339772949219,-0.397437475585937
3.9173580579431,-0.493205541992187,9.95987890625,-0.373495458984375
3.91938725976602,-0.507570751953125,9.97424411621094,-0.378283862304687
3.92141646158893,-0.512359155273437,10.0221281494141,-0.387860668945312
3.92345082758286,-0.454898315429687,10.0029745361328,-0.378283862304687
3.92548519357678,-0.464475122070312,9.97903251953125,-0.368707055664062
3.9275195595707,-0.545877978515625,10.0221281494141,-0.426167895507812
3.92955565191011,-0.45968671875,10.0412817626953,-0.387860668945312
3.93159174424952,-0.4979939453125,10.0460701660156,-0.378283862304687
3.93362783658893,-0.526724365234375,10.0317049560547,-0.4213794921875
3.9356629563806,-0.526724365234375,10.0125513427734,-0.407014282226562
3.93769807617227,-0.488417138671875,10.0652237792969,-0.349553442382812
3.93973319596393,-0.4979939453125,10.0029745361328,-0.354341845703125
3.94170275434067,-0.4979939453125,10.0125513427734,-0.387860668945312
3.9436723127174,-0.512359155273437,10.0604353759766,-0.407014282226562
3.94564187109414,-0.545877978515625,10.0412817626953,-0.44053310546875
3.94766452506549,-0.493205541992187,10.0077629394531,-0.383072265625
3.94968717903684,-0.47884033203125,10.0556469726563,-0.411802685546875
3.9517098330082,-0.469263525390625,10.0221281494141,-0.349553442382812
3.95380853559066,-0.4979939453125,10.0652237792969,-0.464475122070312
3.95590723817313,-0.445321508789062,10.0604353759766,-0.378283862304687
3.95800594075559,-0.435744702148437,10.0748005859375,-0.416591088867187
3.96011010861583,-0.464475122070312,10.0604353759766,-0.359130249023437
3.96221427647608,-0.454898315429687,10.0604353759766,-0.416591088867187
3.96431844433632,-0.445321508789062,10.0891657958984,-0.40222587890625
3.96642517881983,-0.397437475585937,10.0748005859375,-0.378283862304687
3.96853191330334,-0.44053310546875,10.0843773925781,-0.407014282226562
3.97063864778684,-0.45968671875,10.0700121826172,-0.392649072265625
3.97269765798649,-0.474051928710937,10.0604353759766,-0.36391865234375
3.97475666818615,-0.378283862304687,10.0987426025391,-0.378283862304687
3.9768156783858,-0.426167895507812,10.0891657958984,-0.387860668945312
3.97885503276948,-0.44053310546875,10.0843773925781,-0.36391865234375
3.98089438715316,-0.416591088867187,10.0939541992188,-0.450109912109375
3.98293374153684,-0.435744702148437,10.0795889892578,-0.397437475585937
3.9849708003476,-0.435744702148437,10.0843773925781,-0.359130249023437
3.98700785915837,-0.44053310546875,10.0556469726563,-0.387860668945312
3.98904491796913,-0.4213794921875,10.0125513427734,-0.40222587890625
3.9910789674483,-0.40222587890625,10.0604353759766,-0.40222587890625
3.99311301692746,-0.435744702148437,10.0269165527344,-0.47884033203125
3.99514706640663,-0.445321508789062,10.0460701660156,-0.4213794921875
3.99922855642399,-0.416591088867187,10.0125513427734,-0.354341845703125
4.00331004644135,-0.407014282226562,10.0125513427734,-0.301669409179687
4.00739153645872,-0.44053310546875,9.99339772949219,-0.354341845703125
4.00942213205333,-0.411802685546875,9.9981861328125,-0.359130249023437
4.01145272764795,-0.44053310546875,9.9981861328125,-0.320823022460937
4.01348332324257,-0.411802685546875,9.99339772949219,-0.32561142578125
4.01551314236149,-0.416591088867187,10.0077629394531,-0.36391865234375
4.01754296148042,-0.426167895507812,9.98860932617187,-0.368707055664062
4.01957278059934,-0.45968671875,10.0221281494141,-0.373495458984375
4.02160157389361,-0.469263525390625,10.0125513427734,-0.349553442382812
4.02363036718788,-0.45968671875,10.0317049560547,-0.368707055664062
4.02565916048215,-0.411802685546875,10.0221281494141,-0.397437475585937
4.02768793044743,-0.44053310546875,10.0029745361328,-0.407014282226562
4.02971670041271,-0.450109912109375,10.0125513427734,-0.378283862304687
4.03174547037798,-0.47884033203125,9.98860932617187,-0.387860668945312
4.03378038444048,-0.488417138671875,9.95987890625,-0.373495458984375
4.03581529850298,-0.51714755859375,9.98860932617187,-0.335188232421875
4.03785021256548,-0.536301171875,9.99339772949219,-0.339976635742188
4.03988600141097,-0.512359155273437,10.0125513427734,-0.368707055664062
4.04192179025646,-0.502782348632812,10.0077629394531,-0.28730419921875
4.04395757910195,-0.536301171875,10.0317049560547,-0.320823022460937
4.04599458040403,-0.507570751953125,9.99339772949219,-0.359130249023437
4.04803158170612,-0.507570751953125,10.0077629394531,-0.2681505859375
4.0500685830082,-0.541089575195312,10.0173397460938,-0.277727392578125
4.05210566352035,-0.541089575195312,10.0125513427734,-0.229843359375
4.05414274403251,-0.55545478515625,10.036493359375,-0.311246215820312
4.05617982454466,-0.51714755859375,10.0077629394531,-0.28730419921875
4.05821650184501,-0.565031591796875,10.0173397460938,-0.28730419921875
4.06025317914536,-0.545877978515625,10.0412817626953,-0.244208569335937
4.06228985644571,-0.560243188476563,10.0748005859375,-0.349553442382812
4.06431717089883,-0.541089575195312,10.0795889892578,-0.3064578125
4.06634448535196,-0.550666381835937,10.0891657958984,-0.296881005859375
4.06837179980508,-0.521935961914062,10.0987426025391,-0.311246215820312
4.07040108040404,-0.5746083984375,10.1322614257812,-0.311246215820312
4.072430361003,-0.550666381835937,10.0891657958984,-0.263362182617187
4.07445964160196,-0.59376201171875,10.0891657958984,-0.282515795898438
4.07648763617661,-0.55545478515625,10.0556469726563,-0.301669409179687
4.07851563075126,-0.569819995117188,10.0939541992188,-0.225054956054687
4.08054362532591,-0.5746083984375,10.0748005859375,-0.263362182617187
4.08257114008286,-0.531512768554687,10.0987426025391,-0.32561142578125
4.0845986548398,-0.526724365234375,10.1131078125,-0.3064578125
4.08662616959674,-0.51714755859375,10.1514150390625,-0.339976635742188
4.08865227170178,-0.488417138671875,10.1322614257812,-0.316034619140625
4.09067837380681,-0.507570751953125,10.1609918457031,-0.339976635742188
4.09270447591185,-0.51714755859375,10.1849338623047,-0.349553442382812
4.09472192100733,-0.521935961914062,10.1945106689453,-0.311246215820312
4.09673936610282,-0.47884033203125,10.1705686523437,-0.330399829101562
4.0987568111983,-0.493205541992187,10.1753570556641,-0.359130249023437
4.10077299262191,-0.541089575195312,10.1418382324219,-0.383072265625
4.10278917404553,-0.483628735351562,10.1226846191406,-0.339976635742188
4.10480535546914,-0.488417138671875,10.1418382324219,-0.40222587890625
4.1068208502608,-0.488417138671875,10.1035310058594,-0.359130249023437
4.10883634505247,-0.4979939453125,10.0939541992188,-0.383072265625
4.11085183984414,-0.488417138671875,10.0843773925781,-0.378283862304687
4.1128659422747,-0.469263525390625,10.0795889892578,-0.407014282226562
4.11488004470525,-0.569819995117188,10.0939541992188,-0.383072265625
4.11689414713581,-0.579396801757812,10.0700121826172,-0.392649072265625
4.11891427213581,-0.512359155273437,10.0508585693359,-0.397437475585937
4.1209343971358,-0.550666381835937,10.0700121826172,-0.354341845703125
4.1229545221358,-0.584185205078125,10.0556469726563,-0.320823022460937
4.12498467003077,-0.565031591796875,10.0652237792969,-0.320823022460937
4.12701481792573,-0.565031591796875,10.1370498291016,-0.2681505859375
4.12904496582069,-0.550666381835937,10.1178962158203,-0.296881005859375
4.13105607009587,-0.5746083984375,10.1226846191406,-0.2681505859375
4.13306717437104,-0.560243188476563,10.0891657958984,-0.335188232421875
4.13507827864622,-0.59376201171875,10.1370498291016,-0.220266552734375
4.13708786957504,-0.536301171875,10.1418382324219,-0.239420166015625
4.13909746050385,-0.531512768554687,10.1562034423828,-0.220266552734375
4.14110705143267,-0.550666381835937,10.1849338623047,-0.186747729492187
4.1431154800351,-0.569819995117188,10.1992990722656,-0.244208569335937
4.14512390863754,-0.507570751953125,10.2184526855469,-0.21068974609375
4.14713233723997,-0.51714755859375,10.2184526855469,-0.167594116210937
4.14920714648476,-0.521935961914062,10.2280294921875,-0.225054956054687
4.15128195572955,-0.512359155273437,10.2423947021484,-0.229843359375
4.15335676497434,-0.493205541992187,10.2184526855469,-0.272938989257812
4.15539165603337,-0.502782348632812,10.2136642822266,-0.263362182617187
4.1574265470924,-0.488417138671875,10.1992990722656,-0.272938989257812
4.15946143815143,-0.47884033203125,10.2040874755859,-0.292092602539062
4.16149448676254,-0.47884033203125,10.1657802490234,-0.258573779296875
4.16352753537365,-0.426167895507812,10.1705686523437,-0.28730419921875
4.16556058398477,-0.4213794921875,10.2184526855469,-0.28730419921875
4.16759387565144,-0.469263525390625,10.1753570556641,-0.2681505859375
4.1696271673181,-0.392649072265625,10.2184526855469,-0.277727392578125
4.17166045898477,-0.387860668945312,10.1992990722656,-0.316034619140625
4.17369325661932,-0.435744702148437,10.2088758789062,-0.277727392578125
4.17572605425387,-0.397437475585937,10.2519715087891,-0.2681505859375
4.17775885188842,-0.383072265625,10.2088758789062,-0.21068974609375
4.17986557465317,-0.378283862304687,10.2088758789062,-0.2681505859375
4.18197229741793,-0.397437475585937,10.2423947021484,-0.201112939453125
4.18407902018268,-0.397437475585937,10.2807019287109,-0.162805712890625
4.18612259060369,-0.378283862304687,10.2423947021484,-0.138863696289063
4.1881661610247,-0.44053310546875,10.2519715087891,-0.143652099609375
4.19020973144571,-0.407014282226562,10.1609918457031,-0.205901342773437
4.19225482487019,-0.392649072265625,10.2471831054687,-0.0909796630859375
4.19429991829466,-0.454898315429687,10.2280294921875,-0.124498486328125
4.19634501171914,-0.435744702148437,10.2328178955078,-0.105344873046875
4.19839205978772,-0.4213794921875,10.2423947021484,-0.0430956298828125
4.20043910785629,-0.464475122070312,10.2519715087891,-0.028730419921875
4.20248615592487,-0.488417138671875,10.26633671875,0.0
4.20453577419744,-0.488417138671875,10.2519715087891,0.028730419921875
4.20658539247001,-0.474051928710937,10.2854903320312,0.047884033203125
4.20863501074258,-0.51714755859375,10.2471831054687,0.119710083007812
4.21075252604206,-0.536301171875,10.2567599121094,0.0814028564453125
4.21287004134154,-0.507570751953125,10.2854903320312,0.1149216796875
4.21498755664102,-0.55545478515625,10.2950671386719,0.09576806640625
4.21703605533893,-0.545877978515625,10.3285859619141,0.0622492431640625
4.21908455403685,-0.588973608398437,10.3190091552734,0.119710083007812
4.22113305273477,-0.59376201171875,10.3094323486328,0.0909796630859375
4.22318243858546,-0.584185205078125,10.3621047851562,0.17238251953125
4.22523182443616,-0.627280834960937,10.3094323486328,0.124498486328125
4.22728121028685,-0.627280834960937,10.2902787353516,0.17238251953125
4.22933209364188,-0.627280834960937,10.3190091552734,0.143652099609375
4.23138297699692,-0.679953271484375,10.3237975585937,0.201112939453125
4.23343386035195,-0.6512228515625,10.2998555419922,0.177170922851562
4.23549096321654,-0.612915625,10.2950671386719,0.21068974609375
4.23754806608112,-0.612915625,10.2567599121094,0.258573779296875
4.2396051689457,-0.603338818359375,10.2567599121094,0.258573779296875
4.24170615039102,-0.579396801757812,10.2615483154297,0.292092602539062
4.24380713183633,-0.550666381835937,10.2088758789062,0.296881005859375
4.24590811328164,-0.636857641601562,10.2807019287109,0.277727392578125
4.24795893706636,-0.588973608398437,10.26633671875,0.186747729492187
4.25000976085108,-0.569819995117188,10.2759135253906,0.229843359375
4.2520605846358,-0.565031591796875,10.26633671875,0.253785375976562
4.25410961317313,-0.507570751953125,10.2615483154297,0.272938989257812
4.25615864171046,-0.541089575195312,10.2807019287109,0.234631762695312
4.25820767024778,-0.531512768554687,10.2998555419922,0.282515795898438
4.26025704003945,-0.483628735351562,10.2807019287109,0.32561142578125
4.26230640983111,-0.4979939453125,10.2759135253906,0.3064578125
4.26435577962278,-0.474051928710937,10.2615483154297,0.296881005859375
4.26645169607243,-0.47884033203125,10.2519715087891,0.407014282226562
4.26854761252209,-0.483628735351562,10.2471831054687,0.359130249023437
4.27064352897174,-0.493205541992187,10.2328178955078,0.349553442382812
4.27274438487452,-0.474051928710937,10.2184526855469,0.416591088867187
4.2748452407773,-0.4979939453125,10.2184526855469,0.40222587890625
4.27694609668007,-0.47884033203125,10.189722265625,0.40222587890625
4.27898671831636,-0.474051928710937,10.2040874755859,0.40222587890625
4.28102733995264,-0.464475122070312,10.189722265625,0.4213794921875
4.28306796158893,-0.454898315429687,10.189722265625,0.335188232421875
4.28510681250039,-0.464475122070312,10.1466266357422,0.445321508789062
4.28714566341184,-0.44053310546875,10.1466266357422,0.430956298828125
4.2891845143233,-0.450109912109375,10.1801454589844,0.426167895507812
4.29122328569917,-0.45968671875,10.2232410888672,0.507570751953125
4.29326205707503,-0.430956298828125,10.1466266357422,0.469263525390625
4.2953008284509,-0.44053310546875,10.1801454589844,0.507570751953125
4.2973376362851,-0.407014282226562,10.2232410888672,0.603338818359375
4.29937444411931,-0.469263525390625,10.1992990722656,0.603338818359375
4.30141125195351,-0.47884033203125,10.1801454589844,0.67037646484375
4.30348735904986,-0.47884033203125,10.2184526855469,0.675164868164063
4.30556346614622,-0.469263525390625,10.2423947021484,0.588973608398437
4.30763957324257,-0.493205541992187,10.2232410888672,0.63206923828125
4.30967361566879,-0.502782348632812,10.2328178955078,0.689530078125
4.311707658095,-0.526724365234375,10.2328178955078,0.699106884765625
4.31374170052122,-0.531512768554687,10.2088758789062,0.6512228515625
4.31577496918441,-0.541089575195312,10.1992990722656,0.723048901367187
4.31780823784761,-0.550666381835937,10.2136642822266,0.723048901367187
4.3198415065108,-0.545877978515625,10.1035310058594,0.723048901367187
4.32187521343354,-0.531512768554687,10.1083194091797,0.775721337890625
4.32390892035629,-0.59376201171875,10.0891657958984,0.842758984375
4.32594262727903,-0.579396801757812,10.0795889892578,0.8044517578125
4.32797879275212,-0.63206923828125,10.0029745361328,0.8810662109375
4.33001495822521,-0.646434448242187,9.92636008300781,0.799663354492188
4.3320511236983,-0.679953271484375,9.87847604980469,0.852335791015625
4.33416025846392,-0.723048901367187,9.84974562988281,0.866701000976562
4.33626939322955,-0.7278373046875,9.77791958007812,0.914585034179687
4.33837852799517,-0.742202514648437,9.730035546875,0.948103857421875
4.34042245052121,-0.828393774414062,9.64863269042969,0.895431420898437
4.34246637304726,-0.770932934570312,9.55286462402344,0.905008227539062
4.3445102955733,-0.780509741210937,9.4618849609375,0.895431420898437
4.34655517241792,-0.775721337890625,9.48582697753906,0.9193734375
4.34860004926254,-0.852335791015625,9.43794294433594,0.890643017578125
4.35064492610715,-0.833182177734375,9.47146176757813,0.876277807617187
4.35269094357677,-0.847547387695312,9.39005891113281,0.914585034179687
4.35473696104639,-0.852335791015625,9.3852705078125,1.00556469726562
4.35678297851601,-0.8044517578125,9.33259807128906,0.943315454101562
4.35883026215316,-0.837970581054687,9.34217487792969,0.97683427734375
4.36087754579031,-0.799663354492188,9.3086560546875,1.01035310058594
4.36292482942747,-0.837970581054687,9.24640681152344,0.924161840820312
4.36503967957938,-0.833182177734375,9.2320416015625,1.02471831054687
4.36715452973129,-0.837970581054687,9.1554271484375,1.01035310058594
4.3692693798832,-0.857124194335937,9.1554271484375,1.02471831054687
4.37131926551688,-0.86191259765625,9.08360109863281,0.943315454101562
4.37336915115055,-0.809240161132812,9.00698664550781,1.02950671386719
4.37541903678423,-0.814028564453125,8.97825622558594,0.995987890625
4.37746799479205,-0.756567724609375,8.96867941894531,0.933738647460937
4.37951695279986,-0.737414111328125,8.8872765625,0.928950244140625
4.38156591080768,-0.713472094726562,8.84418093261719,0.943315454101562
4.38361518131549,-0.76614453125,8.8489693359375,0.837970581054687
4.3856644518233,-0.689530078125,8.75798967285156,0.885854614257812
4.38771372233111,-0.694318481445312,8.6957404296875,0.90021982421875
4.38976494780854,-0.6512228515625,8.59518395996094,0.76614453125
4.39181617328597,-0.641646044921875,8.55208833007812,0.790086547851562
4.3938673987634,-0.5746083984375,8.48505068359375,0.770932934570312
4.39596329644135,-0.545877978515625,8.44674345703125,0.732625708007812
4.3980591941193,-0.4979939453125,8.42758984375,0.775721337890625
4.40015509179725,-0.469263525390625,8.44195505371094,0.770932934570312
4.40218829307763,-0.454898315429687,8.33182177734375,0.78529814453125
4.40422149435802,-0.40222587890625,8.350975390625,0.809240161132812
4.4062546956384,-0.392649072265625,8.350975390625,0.7278373046875
4.40828213085975,-0.349553442382812,8.33661018066406,0.713472094726562
4.4103095660811,-0.320823022460937,8.24563051757812,0.718260498046875
4.41233700130246,-0.330399829101562,8.26957253417969,0.737414111328125
4.41436204286062,-0.292092602539062,8.29830295410156,0.7278373046875
4.41638708441878,-0.263362182617187,8.26957253417969,0.751779321289062
4.41841212597694,-0.282515795898438,8.20732329101562,0.78529814453125
4.42043898448388,-0.2681505859375,8.27914934082031,0.780509741210937
4.42246584299083,-0.28730419921875,8.22647690429687,0.847547387695312
4.42449270149777,-0.2681505859375,8.18816967773437,0.86191259765625
4.4265845425351,-0.277727392578125,8.16901606445312,0.842758984375
4.42867638357243,-0.225054956054687,8.14507404785156,0.9576806640625
4.43076822460975,-0.239420166015625,8.14986245117187,0.890643017578125
4.43280247981809,-0.24899697265625,8.09719001464844,1.05344873046875
4.43483673502642,-0.253785375976562,8.06367119140625,1.03908352050781
4.43687099023476,-0.234631762695312,8.03972917480469,1.07739074707031
4.43890471213146,-0.225054956054687,7.98226833496094,1.01514150390625
4.44093843402816,-0.177170922851562,7.97269152832031,1.01035310058594
4.44297215592486,-0.13407529296875,7.98226833496094,0.924161840820312
4.44500505197521,-0.119710083007812,7.79552060546875,0.842758984375
4.44703794802555,-0.05746083984375,7.78594379882812,0.967257470703125
4.4490708440759,-0.0526724365234375,7.78115539550781,0.952892260742187
4.45110382183198,-0.028730419921875,7.65665690917969,0.967257470703125
4.45313679958806,0.009576806640625,7.6614453125,0.995987890625
4.45516977734414,0.0909796630859375,7.56567724609375,1.01514150390625
4.45727001378077,0.138863696289063,7.54173522949219,0.948103857421875
4.4593702502174,0.177170922851562,7.46512077636719,0.9576806640625
4.46147048665403,0.239420166015625,7.41723674316406,0.9576806640625
4.46351086263059,0.272938989257812,7.3932947265625,0.981622680664062
4.46555123860715,0.311246215820312,7.27358464355469,1.00556469726562
4.46759161458371,0.383072265625,7.278373046875,1.08217915039062
4.46955729296913,0.469263525390625,7.278373046875,1.16837041015625
4.47152297135455,0.545877978515625,7.21612380371094,1.16837041015625
4.47348864973997,0.641646044921875,7.27358464355469,1.19231242675781
4.4754553720707,0.656011254882812,7.21612380371094,1.15879360351562
4.47742209440143,0.6512228515625,7.15866296386719,1.39821376953125
4.47938881673216,0.699106884765625,7.17781657714844,1.35511813964844
4.48135751931462,0.699106884765625,7.20654699707031,1.33596452636719
4.48332622189709,0.74699091796875,7.12993254394531,1.38384855957031
4.48529492447955,0.660799658203125,7.0485296875,1.36948334960938
4.48732045095524,0.742202514648437,7.0868369140625,1.3407529296875
4.48934597743094,0.718260498046875,7.08204851074219,1.39821376953125
4.49137150390663,0.7278373046875,7.09162531738281,1.40300217285156
4.49339856727469,0.675164868164063,6.98628044433594,1.35990654296875
4.49542563064274,0.656011254882812,6.88572397460938,1.35032973632813
4.4974526940108,0.579396801757812,6.86657036132813,1.45088620605469
4.49947979069048,0.55545478515625,6.79953271484375,1.54665427246094
4.50150688737017,0.454898315429687,6.76601389160156,1.53707746582031
4.50353398404986,0.469263525390625,6.742071875,1.58496149902344
4.50563240364621,0.383072265625,6.73728347167969,1.55144267578125
4.50773082324256,0.0814028564453125,6.64630380859375,1.19231242675781
4.50982924283892,0.0718260498046875,6.59841977539062,0.967257470703125
4.51190346538666,0.047884033203125,6.59841977539062,0.852335791015625
4.5139776879344,0.09576806640625,6.512228515625,0.814028564453125
4.51605191048214,-0.0047884033203125,6.54574733886719,0.837970581054687
4.51809669845957,-0.009576806640625,6.41646044921875,0.890643017578125
4.520141486437,-0.09576806640625,6.41646044921875,0.890643017578125
4.52218627441443,-0.186747729492187,6.34942280273437,0.991199487304687
4.52422864290402,-0.263362182617187,6.27759675292969,1.07260234375
4.5262710113936,-0.378283862304687,6.17225187988281,1.14442839355469
4.52831337988318,-0.488417138671875,6.19140549316406,1.17794721679687
4.53035560861582,-0.569819995117188,6.17704028320312,1.08696755371094
4.53239783734846,-0.646434448242187,6.21534750976562,1.13963999023438
4.5344400660811,-0.713472094726562,6.25844313964844,1.21146604003906
4.53648215212711,-0.818816967773437,6.37815322265625,1.13963999023438
4.53852423817312,-0.8810662109375,6.43082565917969,1.16358200683594
4.54056632421912,-0.972045874023437,6.49786330566406,1.27371528320312
4.5426083739153,-1.00556469726562,6.56490095214844,1.36469494628906
4.54465042361148,-1.08696755371094,6.60799658203125,1.31681091308594
4.54669247330766,-1.20667763671875,6.76601389160156,1.27850368652344
4.5487102114804,-1.25935007324219,6.9336080078125,1.26892687988281
4.55072794965314,-1.28808049316406,7.01501086425781,1.17315881347656
4.55274568782589,-1.32159931640625,7.02458767089844,1.02950671386719
4.55476049620262,-1.302445703125,7.09641372070312,0.952892260742187
4.55677530457936,-1.28808049316406,7.2400658203125,0.723048901367187
4.55879011295609,-1.27371528320312,7.29273825683594,0.694318481445312
4.56080706825123,-1.25456166992187,7.20654699707031,0.47884033203125
4.56282402354637,-1.18273562011719,7.14908615722656,0.311246215820312
4.56484097884151,-1.04387192382812,7.13950935058594,0.201112939453125
4.56685891026512,-0.967257470703125,7.06289489746094,0.148440502929687
4.56887684168874,-0.928950244140625,6.90487758789063,0.1149216796875
4.57089477311235,-0.799663354492188,6.76122548828125,0.0814028564453125
4.57291332964447,-0.751779321289062,6.72770666503906,0.1149216796875
4.57493188617658,-0.627280834960937,6.63672700195312,0.110133276367187
4.5769504427087,-0.63206923828125,6.41646044921875,0.028730419921875
4.57898136100298,-0.612915625,6.358999609375,-0.0335188232421875
4.58101227929725,-0.536301171875,6.21055910644531,0.0047884033203125
4.58304319759152,-0.536301171875,6.03817658691406,-0.0383072265625
4.58507442306895,-0.526724365234375,5.96156213378906,0.047884033203125
4.58710564854638,-0.469263525390625,5.87058247070312,0.047884033203125
4.58913687402381,-0.541089575195312,5.76044919433594,0.0383072265625
4.59116800151947,-0.483628735351562,5.68862314453125,0.148440502929687
4.59319912901513,-0.51714755859375,5.53060583496094,0.301669409179687
4.59523025651078,-0.588973608398437,5.18584079589844,0.40222587890625
4.59733127723561,-0.608127221679687,5.18584079589844,0.541089575195312
4.59943229796044,-0.63206923828125,5.07570751953125,0.656011254882812
4.60153331868527,-0.59376201171875,5.06613071289062,0.694318481445312
4.60363255403683,-0.569819995117188,4.80276853027344,0.6512228515625
4.60573178938839,-0.560243188476563,4.74530769042969,0.732625708007812
4.60783102473995,-0.51714755859375,4.6351744140625,0.842758984375
4.60986841482242,-0.5746083984375,4.60644399414062,0.842758984375
4.61190580490488,-0.445321508789062,4.50588752441406,1.0342951171875
4.61394319498735,-0.47884033203125,4.37181223144531,1.07260234375
4.61597988541704,-0.411802685546875,4.26646735839844,1.04387192382812
4.61801657584672,-0.359130249023437,4.20421811523437,0.933738647460937
4.62005326627641,-0.292092602539062,4.07493122558594,0.967257470703125
4.62208893001339,-0.201112939453125,4.03662399902344,1.01035310058594
4.62412459375037,-0.119710083007812,3.89776030273437,1.00077629394531
4.62616025748735,-0.0239420166015625,3.73016618652344,1.1109095703125
4.62819557009585,0.148440502929687,3.82114584960937,1.31202250976562
4.63023088270436,0.186747729492187,3.6391865234375,1.35032973632813
4.63226619531287,0.311246215820312,3.55778366699219,1.42694418945312
4.63430138389794,0.416591088867187,3.57214887695312,1.42215578613281
4.63633657248301,0.36391865234375,3.45722719726562,1.36469494628906
4.63837176106808,0.354341845703125,3.32315190429687,1.28329208984375
4.64041404654985,0.430956298828125,3.27047946777344,1.42694418945312
4.64245633203162,0.560243188476563,3.12203896484375,1.55144267578125
4.6444986175134,0.646434448242187,3.09330854492187,1.60411511230469
4.64654265310367,0.67037646484375,2.93529123535156,1.64242233886719
4.64858668869395,0.780509741210937,2.90177241210937,1.67594116210937
4.65063072428423,0.770932934570312,2.76769711914062,1.75734401855469
4.65267611816444,0.828393774414062,2.77248552246094,1.73340200195312
4.65472151204465,0.818816967773437,2.71023627929688,1.69030637207031
4.65676690592486,0.809240161132812,2.6431986328125,1.70467158203125
4.65881297960108,0.756567724609375,2.63362182617187,1.62805712890625
4.66085905327729,0.847547387695312,2.58094938964844,1.61848032226562
4.66290512695351,0.809240161132812,2.53785375976562,1.60411511230469
4.66495291807764,0.847547387695312,2.44687409667969,1.74297880859375
4.66700070920177,0.86191259765625,2.43729729003906,1.86268889160156
4.6690485003259,0.909796630859375,2.56179577636719,1.93451494140625
4.67107806499604,0.871489404296875,2.63841022949219,2.08774384765625
4.67310762966618,0.909796630859375,2.68629426269531,2.25054956054688
4.67513719433632,0.833182177734375,2.7964275390625,2.42772048339844
4.67724318174951,0.828393774414062,2.92571442871094,2.6431986328125
4.67934916916271,0.732625708007812,2.99754047851562,2.96881005859375
4.6814551565759,0.6512228515625,3.07894333496094,3.17471140136719
4.68356110362451,0.660799658203125,3.20344182128906,3.39976635742187
4.68566705067312,0.55545478515625,3.34230551757812,3.56736047363281
4.68777299772173,0.560243188476563,3.42370837402344,3.66791694335937
4.68987888118528,0.45968671875,3.51468803710937,3.77326181640625
4.69198476464882,0.368707055664062,3.62960971679687,3.81156904296875
4.69409064811236,0.311246215820312,3.70143576660156,3.754108203125
4.69619879123302,0.196324536132812,3.78762702636719,3.754108203125
4.69830693435368,0.17238251953125,3.907337109375,3.80199223632812
4.70041507747434,0.0239420166015625,4.03662399902344,3.79720383300781
4.70245751573388,-0.0335188232421875,4.19464130859375,3.85466467285156
4.70449995399343,-0.124498486328125,4.34787021484375,3.89297189941406
4.70654239225298,-0.158017309570312,4.40054265136719,4.20421811523437
4.70858301312972,-0.234631762695312,4.54898315429687,4.38617744140625
4.71062363400645,-0.2681505859375,4.72615407714844,4.62080920410156
4.71266425488319,-0.383072265625,4.82192214355469,4.80755693359375
4.71470421527816,-0.397437475585937,5.02303508300781,5.0948611328125
4.71674417567312,-0.4979939453125,5.18584079589844,5.40610734863281
4.71878413606808,-0.55545478515625,5.29597407226562,5.53539423828125
4.72294162955767,-0.82360537109375,7.18739338378906,5.96635053710938
4.72709912304725,-0.93852705078125,7.47948598632812,5.7843912109375
4.73125661653683,-1.12527478027344,7.85776984863281,5.67425793457031
4.7332903285594,-1.22583125,8.09719001464844,5.61679709472656
4.73532404058197,-1.29765729980469,8.43716665039062,5.62158549804687
4.73735775260455,-1.43652099609375,8.77714328613281,5.61679709472656
4.7393140862634,-1.33596452636719,9.05487067871094,5.66946953125
4.74127041992225,-1.46046301269531,9.48582697753906,5.75087238769531
4.74322675358111,-1.47482822265625,9.84016882324219,5.71735356445312
4.74517769997867,-1.49877023925781,10.2471831054687,5.88973608398438
4.74712864637624,-1.48919343261719,10.7164466308594,5.91846650390625
4.74907959277381,-1.43173259277344,11.1904985595703,5.97113894042969
4.75102799696218,-1.2641384765625,11.5975128417969,6.14830986328125
4.75297640115055,-1.22583125,12.0045271240234,6.35421120605469
4.75492480533892,-1.149216796875,12.4354834228516,6.59841977539062
4.75692644292572,-0.97683427734375,12.7706716552734,7.0102224609375
4.75892808051253,-0.718260498046875,13.1106482910156,7.4699091796875
4.76092971809933,-0.507570751953125,13.4793553466797,7.82903942871094
4.76292937315576,-0.0814028564453125,13.7475059326172,8.21690009765625
4.76492902821218,0.0814028564453125,13.8911580322266,8.42758984375
4.7669286832686,0.143652099609375,14.0539637451172,8.57124194335938
4.7689288300785,0.445321508789062,14.2024042480469,8.66701000976562
4.77092897688839,0.756567724609375,14.3077491210937,8.80587370605469
4.77292912369829,1.0342951171875,14.4226708007812,9.14106193847656
4.77492962749603,1.13006318359375,14.5806881103516,9.45709655761719
4.77693013129378,1.21146604003906,14.6716677734375,9.80665
4.77893063509152,1.36469494628906,14.8296850830078,10.2711251220703
4.78091342003076,1.5322890625,14.9733371826172,10.8600987304687
4.78289620496999,1.51313544921875,15.0547400390625,11.1330377197266
4.78487898990923,1.50355864257812,15.2366993652344,11.4682259521484
4.7869130004344,1.39821376953125,15.399505078125,11.6023012451172
4.78894701095958,1.33596452636719,15.552733984375,11.8129909912109
4.79098102148475,0.905008227539062,15.6341368408203,11.7842605712891
4.79301455013058,0.866701000976562,15.8496149902344,12.0141039306641
4.79504807877641,0.612915625,16.0028438964844,11.9997387207031
4.79708160742225,0.387860668945312,16.2662060791016,11.9710083007812
4.79911541460541,0.349553442382812,16.4433770019531,11.7124345214844
4.80114922178857,0.507570751953125,16.5199914550781,11.8369330078125
4.80318302897173,0.387860668945312,16.7642000244141,11.875240234375
4.8052166394318,0.603338818359375,16.9988317871094,12.1002951904297
4.80725024989187,0.74699091796875,17.0371390136719,12.3780225830078
4.80928386035194,1.0342951171875,17.0610810302734,12.8281324951172
4.81131726247867,1.05823713378906,16.9270057373047,12.9669961914062
4.81335066460541,1.16358200683594,17.0419274169922,13.2926076171875
4.81538406673215,1.5322890625,17.0275622070312,13.7618711425781
4.81741332996999,1.5322890625,16.7689884277344,13.7235639160156
4.81944259320784,1.64242233886719,16.8072956542969,13.6565262695312
4.82147185644569,1.81001645507812,16.8264492675781,13.867216015625
4.82350452832069,1.67594116210937,17.0371390136719,13.7810247558594
4.82553720019569,1.77170922851562,17.1855795166016,13.5559697998047
4.82756987207069,1.68072956542969,17.0610810302734,13.2399351806641
4.82960171332502,1.45088620605469,17.0179854003906,12.6078659423828
4.83163355457936,1.35511813964844,17.0467158203125,12.4450602294922
4.8336653958337,1.40300217285156,17.2813475830078,12.5935007324219
4.8356982880863,1.38863696289062,17.4824605224609,12.947842578125
4.83773118033891,1.58496149902344,17.5159793457031,13.2638771972656
4.83976407259151,1.608903515625,17.7266690917969,13.4506249267578
4.84179701367224,1.73340200195312,17.9325704345703,13.5368161865234
4.84382995475297,1.83395847167969,18.1336833740234,13.5894886230469
4.84586289583369,1.89141931152344,18.2581818603516,13.48414375
4.84789310959237,1.95845695800781,18.4832368164062,13.2638771972656
4.84992332335105,1.8770541015625,18.7896946289063,13.0148802246094
4.85195353710973,1.80522805175781,18.8663090820313,12.7754600585937
4.85397946560366,1.83395847167969,19.0386916015625,12.6222311523437
4.85600539409758,1.85311208496094,19.3355726074219,12.5360398925781
4.8580313225915,1.93451494140625,19.2637465576172,12.5408282958984
4.86005687120262,1.99197578125,19.2445929443359,12.7515180419922
4.86208241981373,2.00634099121094,19.1296712646484,13.1393787109375
4.86410796842484,1.96324536132812,18.8375786621094,13.5463929931641
4.86613326367224,1.97282216796875,18.6460425292969,13.6325842529297
4.86815855891964,1.838746875,18.3683151367187,13.7091987060547
4.87018385416703,1.61848032226562,18.1767790039062,13.8863696289062
4.87221076833804,1.47003981933594,17.9660892578125,13.8911580322266
4.87423768250905,1.32159931640625,17.4106344726562,13.9677724853516
4.87626459668006,1.09654436035156,17.1376954833984,14.0060797119141
4.87829586328163,0.905008227539062,16.8456028808594,13.8528508056641
4.88032712988319,0.742202514648437,16.5918175048828,13.6038538330078
4.88235839648475,0.588973608398437,16.3428205322266,13.6086422363281
4.88438896386756,0.445321508789062,16.1608612060547,13.48414375
4.88641953125038,0.407014282226562,15.9453830566406,13.4218945068359
4.88845009863319,0.339976635742188,15.7203281005859,13.4889321533203
4.89047986686236,0.32561142578125,15.3899282714844,13.7091987060547
4.89250963509152,0.296881005859375,15.1505081054687,13.7953899658203
4.89453940332069,0.368707055664062,14.9446067626953,13.8767928222656
4.89656969683197,0.354341845703125,14.9446067626953,13.7427175292969
4.89859999034326,0.397437475585937,14.7051865966797,13.3452800537109
4.90063028385454,0.416591088867187,14.5854765136719,12.6988456054687
4.90265295963579,0.387860668945312,14.3891519775391,12.3828109863281
4.90467563541704,0.450109912109375,14.3125375244141,12.2439472900391
4.90669831119829,0.45968671875,14.1114245849609,12.1577560302734
4.90872993044743,0.493205541992187,13.94383046875,12.2247936767578
4.91076154969656,0.541089575195312,13.9294652587891,12.1769096435547
4.91279316894569,0.689530078125,13.7618711425781,12.3445037597656
4.91482525325559,0.814028564453125,13.7570827392578,12.334926953125
4.91685733756549,0.97683427734375,13.5463929931641,12.2391588867187
4.91888942187538,1.07260234375,13.3452800537109,11.9997387207031
4.92092205859413,1.24498486328125,13.1920511474609,11.5161099853516
4.92295469531288,1.3407529296875,13.1633207275391,11.1378261230469
4.92498733203163,1.30723410644531,13.1298019042969,10.6781394042969
4.92701952517399,1.27850368652344,13.1250135009766,10.3860468017578
4.92905171831635,1.31202250976562,13.2159931640625,10.1418382324219
4.93108391145871,1.25935007324219,13.2590887939453,10.1226846191406
4.93304707942746,1.20188923339844,13.4123177001953,10.2567599121094
4.93501024739621,1.15400520019531,13.6086422363281,10.3237975585937
4.93697341536496,1.1109095703125,13.7283523193359,10.6111017578125
4.9389358940976,0.952892260742187,13.9007348388672,10.5775829345703
4.94089837283024,0.756567724609375,14.1162129882812,10.4770264648437
4.94286085156288,0.6512228515625,14.3077491210937,10.1609918457031
4.94496963324691,0.4979939453125,14.4322476074219,9.90241806640625
4.94707841493093,0.263362182617187,14.5950533203125,9.6917283203125
4.94918719661496,0.0909796630859375,14.8823575195312,9.49061538085937
4.95130160850732,-0.124498486328125,15.093047265625,9.49540378417969
4.95341602039968,-0.1915361328125,15.3133138183594,9.45709655761719
4.95553043229204,-0.296881005859375,15.4904847412109,9.53371101074219
4.95764744509586,-0.488417138671875,15.6772324707031,9.68693991699219
4.95976445789968,-0.622492431640625,15.7873657470703,9.71088193359375
4.9618814707035,-0.689530078125,15.8256729736328,9.68215151367187
4.96392628038232,-0.852335791015625,16.0076322998047,9.64384428710937
4.96597109006114,-0.97683427734375,16.08903515625,9.38048210449219
4.96801589973996,-1.04387192382812,16.1225539794922,9.08360109863281
4.97006320909326,-1.09175595703125,16.2374756591797,8.89685336914062
4.97211051844656,-1.22583125,16.2949364990234,8.65264479980469
4.97415782779986,-1.24498486328125,16.3619741455078,8.39885942382812
4.97620574283892,-1.24498486328125,16.4242233886719,8.26957253417969
4.97825365787798,-1.31202250976562,16.4481654052734,8.02057556152344
4.98030157291705,-1.33117612304687,16.5295682617187,7.78115539550781
4.98234951920611,-1.39342536621094,16.5822406982422,7.68538732910156
4.98439746549517,-1.41257897949219,16.6540667480469,7.67102211914062
4.98644541178423,-1.43173259277344,16.7642000244141,7.75721337890625
4.99152652780529,-2.11647426757812,18.5550628662109,5.62158549804687
4.99660764382634,-1.97761057128906,18.8950395019531,5.76044919433594
5.00168875984739,-2.11647426757812,19.2014973144531,5.65031591796875
5.00370458113645,-2.64798703613281,19.7186448730469,5.70298835449219
5.00572040242551,-2.76290871582031,20.1256591552734,5.93283171386719
5.00773622371458,-2.44208569335937,20.5470386474609,6.10042583007812
5.00975525794852,-2.3367408203125,20.9253225097656,6.01902297363281
5.01177429218246,-2.10210905761719,21.3897976318359,5.94240852050781
5.0137933264164,-1.93930334472656,21.7345626708984,5.64552751464844
5.01587268372977,-1.68551796875,21.681890234375,5.54975944824219
5.01795204104314,-1.5322890625,21.5190845214844,5.31512768554687
5.0200313983565,-1.149216796875,21.2269919189453,5.27682045898437
5.02208782386649,-0.59376201171875,20.8343428466797,5.54975944824219
5.02414424937647,-0.569819995117188,20.3698677246094,5.44441457519531
5.02620067488645,-0.47884033203125,19.8383549560547,5.2097828125
5.02822779511215,-0.387860668945312,19.3690914306641,5.04218869628906
5.03025491533784,-0.320823022460937,18.9716539550781,5.02303508300781
5.03228203556354,-0.148440502929687,18.9046163085937,5.07091911621094
5.03429906827838,0.162805712890625,18.7418105957031,5.25287844238281
5.03631610099322,0.483628735351562,18.7178685791016,5.53060583496094
5.03833313370807,0.454898315429687,18.8423670654297,5.49229860839844
5.04034730900104,0.143652099609375,19.0291147949219,5.16189877929687
5.042361484294,0.239420166015625,19.6516072265625,5.05176550292969
5.04437565958697,0.220266552734375,20.302830078125,4.98951625976563
5.04636575702621,0.215478149414062,21.2605107421875,4.7884033203125
5.04835585446544,0.507570751953125,22.1224233398437,4.54898315429687
5.05034595190468,0.598550415039062,23.0034895507813,4.4819455078125
5.052311488146,0.770932934570312,24.4160685302734,4.39575424804687
5.05427702438732,1.23061965332031,25.2013666748047,4.24731374511719
5.05624256062864,1.10133276367187,25.7663982666016,3.65355173339844
5.05826486271197,1.01514150390625,26.2739690185547,3.22738383789062
5.0602871647953,1.42215578613281,27.198130859375,2.9496564453125
5.06230946687864,1.63284553222656,28.3090404296875,2.64798703613281
5.06432362670937,1.58974990234375,29.1517994140625,2.14999309082031
5.0663377865401,1.54186586914062,29.803022265625,1.32638771972656
5.06835194637083,1.77170922851562,30.2052481445312,0.991199487304687
5.07035703767942,2.27927998046875,30.6840884765625,0.799663354492188
5.07236212898801,2.53306535644531,30.7415493164062,0.59376201171875
5.07436722029661,2.30801040039062,29.3577007568359,0.239420166015625
5.07637119870373,2.51870014648437,28.577191015625,0.545877978515625
5.07837517711085,2.681505859375,28.0265246337891,1.38863696289062
5.08037915551796,2.46123930664062,27.2603801025391,2.1068974609375
5.08236283357786,2.20266552734375,26.2931226318359,2.61446821289062
5.08434651163775,1.93930334472656,25.2731927246094,2.76769711914062
5.08633018969765,1.455674609375,24.0425730712891,2.89698400878906
5.08835833005138,1.05823713378906,22.7832229980469,2.96402165527344
5.09038647040511,0.646434448242187,21.7010438476562,3.07894333496094
5.09241461075884,0.244208569335937,20.8487080566406,3.08373173828125
5.09444377785954,0.205901342773437,20.609287890625,3.14598098144531
5.09647294496023,0.09576806640625,20.2836764648437,3.19386501464844
5.09850211206092,-0.196324536132812,20.1687547851562,3.03584770507812
5.10053047045936,-0.493205541992187,20.1065055419922,2.82994636230469
5.1025588288578,-0.866701000976562,20.1639663818359,2.42293208007812
5.10458718725624,-1.25935007324219,20.0873519287109,2.24576115722656
5.10661352769677,-1.50834704589844,19.8670853759766,1.92972653808594
5.10863986813731,-1.88663090820312,19.6994912597656,1.78607443847656
5.11066620857785,-2.28885678710938,19.3116305908203,1.36948334960938
5.11265420673324,-2.60967980957031,19.0147495849609,1.15400520019531
5.11464220488862,-2.89219560546875,18.9333467285156,0.55545478515625
5.116630203044,-2.64798703613281,18.5167556396484,-0.32561142578125
5.11865137139253,-2.49475812988281,17.9325704345703,-1.01035310058594
5.12067253974105,-2.48039291992187,17.3388084228516,-1.91057292480469
5.12269370808957,-2.43729729003906,16.8072956542969,-2.51391174316406
5.12471597404009,-2.1835119140625,16.3093017089844,-2.77248552246094
5.12673823999062,-1.838746875,15.6628672607422,-2.66235224609375
5.12876050594114,-1.69030637207031,14.6573025634766,-2.17872351074219
