timestamp,accel_x (m/s2),accel_y (m/s2),accel_z (m/s2)
0.00317785910373184,-0.847547387695312,9.78749638671875,-1.5322890625
0.00635571820746369,-0.86191259765625,9.75876596679687,-1.47003981933594
0.00953357731119553,-0.809240161132812,9.79707319335937,-1.5322890625
0.0158930576714411,-0.876277807617187,9.81143840332031,-1.58017309570312
0.0222525380316867,-0.866701000976562,9.81143840332031,-1.54186586914062
0.0286120183919323,-0.8810662109375,9.78749638671875,-1.55144267578125
0.0349761504448836,-0.885854614257812,9.80665,-1.55144267578125
0.0413402824978348,-0.895431420898437,9.77313117675781,-1.50355864257812
0.0477044145507861,-0.876277807617187,9.82580361328125,-1.48919343261719
0.0541392577582537,-0.885854614257812,9.78270798339844,-1.53707746582031
0.0605741009657213,-0.871489404296875,9.83059201660156,-1.56101948242187
0.0670089441731889,-0.871489404296875,9.77791958007812,-1.4939818359375
0.0734474403754485,-0.842758984375,9.81143840332031,-1.58974990234375
0.0798859365777081,-0.847547387695312,9.80186159667969,-1.5705962890625
0.0863244327799677,-0.895431420898437,9.82580361328125,-1.58496149902344
0.0927649628363909,-0.895431420898437,9.8449572265625,-1.56580788574219
0.0992054928928141,-0.928950244140625,9.81143840332031,-1.54665427246094
0.105646022949237,-0.885854614257812,9.81143840332031,-1.58496149902344
0.112089870822504,-0.885854614257812,9.83059201660156,-1.58017309570312
0.11853371869577,-0.866701000976562,9.85453403320312,-1.54665427246094
0.124977566569036,-0.885854614257812,9.80665,-1.51313544921875
0.131423954047338,-0.885854614257812,9.79707319335937,-1.5322890625
0.137870341525639,-0.871489404296875,9.82580361328125,-1.59932670898438
0.14431672900394,-0.890643017578125,9.81143840332031,-1.51792385253906
0.150829090983107,-0.885854614257812,9.80186159667969,-1.5322890625
0.157341452962273,-0.890643017578125,9.80665,-1.54665427246094
0.16385381494144,-0.857124194335937,9.80665,-1.58974990234375
0.170373285644565,-0.852335791015625,9.78270798339844,-1.60411511230469
0.176892756347691,-0.895431420898437,9.78749638671875,-1.58496149902344
0.183412227050816,-0.890643017578125,9.83059201660156,-1.56580788574219
0.189935041178423,-0.871489404296875,9.8449572265625,-1.5705962890625
0.196457855306029,-0.914585034179687,9.82101520996094,-1.60411511230469
0.202980669433636,-0.885854614257812,9.81622680664062,-1.52271225585937
0.209505027723568,-0.90021982421875,9.81143840332031,-1.55623107910156
0.2160293860135,-0.8810662109375,9.79228479003906,-1.51313544921875
0.222553744303433,-0.928950244140625,9.81622680664062,-1.60411511230469
0.229079677137636,-0.914585034179687,9.85932243652344,-1.50834704589844
0.235605609971839,-0.924161840820312,9.82580361328125,-1.57538469238281
0.242131542806042,-0.914585034179687,9.84974562988281,-1.59453830566406
0.248720420084688,-0.90021982421875,9.79707319335937,-1.51313544921875
0.255309297363333,-0.895431420898437,9.81143840332031,-1.54186586914062
0.261898174641978,-0.933738647460937,9.81143840332031,-1.59932670898438
0.268492901529998,-0.924161840820312,9.81143840332031,-1.52750065917969
0.275087628418018,-0.928950244140625,9.78749638671875,-1.55144267578125
0.281682355306039,-0.866701000976562,9.77791958007812,-1.50355864257812
0.288279052788679,-0.905008227539062,9.77791958007812,-1.55144267578125
0.294875750271319,-0.890643017578125,9.79707319335937,-1.50355864257812
0.301472447753959,-0.890643017578125,9.75397756347656,-1.47961662597656
0.3080707311741,-0.909796630859375,9.77313117675781,-1.54186586914062
0.314669014594242,-0.895431420898437,9.79707319335937,-1.47003981933594
0.321267298014384,-0.9193734375,9.82101520996094,-1.53707746582031
0.327867430067336,-0.86191259765625,9.81622680664062,-1.52271225585937
0.334467562120288,-0.885854614257812,9.77791958007812,-1.50834704589844
0.34106769417324,-0.8810662109375,9.80186159667969,-1.56101948242187
0.347734807454493,-0.852335791015625,9.80186159667969,-1.50834704589844
0.354401920735747,-0.924161840820312,9.82101520996094,-1.56101948242187
0.361069034017,-0.924161840820312,9.83538041992187,-1.55144267578125
0.367817186143737,-0.8810662109375,9.81622680664062,-1.52271225585937
0.374565338270474,-0.876277807617187,9.81143840332031,-1.455674609375
0.381313490397211,-0.924161840820312,9.83538041992187,-1.51313544921875
0.388067841308671,-0.972045874023437,9.81622680664062,-1.56580788574219
0.39482219222013,-0.9193734375,9.82101520996094,-1.52750065917969
0.40157654313159,-0.890643017578125,9.82101520996094,-1.46525141601562
0.408333594889401,-0.90021982421875,9.82101520996094,-1.52750065917969
0.415090646647213,-0.924161840820312,9.79228479003906,-1.53707746582031
0.421847698405024,-0.871489404296875,9.81622680664062,-1.55144267578125
0.428611904025684,-0.914585034179687,9.83059201660156,-1.48440502929687
0.435376109646344,-0.909796630859375,9.82101520996094,-1.48440502929687
0.442140315267004,-0.905008227539062,9.84974562988281,-1.55144267578125
0.448909745822559,-0.8810662109375,9.84016882324219,-1.50834704589844
0.455679176378114,-0.890643017578125,9.81622680664062,-1.51792385253906
0.46244860693367,-0.909796630859375,9.83059201660156,-1.52271225585937
0.469223911512664,-0.890643017578125,9.8449572265625,-1.50834704589844
0.475999216091658,-0.890643017578125,9.82580361328125,-1.52750065917969
0.482774520670652,-0.928950244140625,9.83538041992187,-1.54665427246094
0.489552252658501,-0.8810662109375,9.80186159667969,-1.47961662597656
0.496329984646349,-0.885854614257812,9.81143840332031,-1.48440502929687
0.503107716634197,-0.962469067382812,9.80665,-1.50834704589844
0.516850580349474,-0.8810662109375,9.77313117675781,-1.49877023925781
0.530593444064751,-0.890643017578125,9.82580361328125,-1.48440502929687
0.544336307780029,-0.90021982421875,9.8449572265625,-1.51313544921875
0.551242998860758,-0.8810662109375,9.81143840332031,-1.48919343261719
0.558149689941487,-0.885854614257812,9.78749638671875,-1.5322890625
0.565056381022217,-0.895431420898437,9.79228479003906,-1.50834704589844
0.571965421061279,-0.866701000976562,9.81622680664062,-1.4939818359375
0.578874461100341,-0.857124194335937,9.81622680664062,-1.51313544921875
0.585783501139403,-0.885854614257812,9.79228479003906,-1.57538469238281
0.592694486056937,-0.885854614257812,9.79707319335937,-1.51792385253906
0.599605470974472,-0.8810662109375,9.78749638671875,-1.53707746582031
0.606516455892006,-0.909796630859375,9.80665,-1.4939818359375
0.613429401095999,-0.871489404296875,9.82580361328125,-1.51792385253906
0.620342346299992,-0.8810662109375,9.80665,-1.5705962890625
0.627255291503985,-0.871489404296875,9.79707319335937,-1.5705962890625
0.634170026313015,-0.890643017578125,9.82101520996094,-1.57538469238281
0.641084761122045,-0.905008227539062,9.79228479003906,-1.55144267578125
0.647999495931074,-0.890643017578125,9.80186159667969,-1.54186586914062
0.668906180609895,-0.909796630859375,9.82580361328125,-1.46046301269531
0.689812865288715,-0.909796630859375,9.8449572265625,-1.48919343261719
0.710719549967536,-0.90021982421875,9.79707319335937,-1.47961662597656
0.717717687120313,-0.924161840820312,9.80186159667969,-1.45088620605469
0.72471582427309,-0.90021982421875,9.80665,-1.49877023925781
0.731713961425868,-0.952892260742187,9.80186159667969,-1.50355864257812
0.738713394694097,-0.933738647460937,9.78270798339844,-1.50355864257812
0.745712827962327,-0.933738647460937,9.81143840332031,-1.52750065917969
0.752712261230556,-0.948103857421875,9.85453403320312,-1.46046301269531
0.759712933973612,-0.962469067382812,9.81622680664062,-1.54186586914062
0.766713606716669,-0.9193734375,9.82101520996094,-1.53707746582031
0.773714279459725,-0.909796630859375,9.85453403320312,-1.58017309570312
0.780716263834724,-0.933738647460937,9.85453403320312,-1.56580788574219
0.787718248209723,-0.962469067382812,9.8449572265625,-1.53707746582031
0.794720232584723,-0.9193734375,9.83059201660156,-1.59932670898438
0.801779424099479,-0.943315454101562,9.84016882324219,-1.60411511230469
0.808838615614235,-0.967257470703125,9.81622680664062,-1.56101948242187
0.815897807128991,-0.943315454101562,9.81143840332031,-1.63763393554687
0.822966172146351,-0.962469067382812,9.80665,-1.59453830566406
0.830034537163712,-0.981622680664062,9.87368764648437,-1.56101948242187
0.837102902181073,-0.948103857421875,9.83538041992187,-1.59453830566406
0.844174848036109,-0.933738647460937,9.83059201660156,-1.608903515625
0.851246793891145,-0.962469067382812,9.81622680664062,-1.58496149902344
0.858318739746181,-0.948103857421875,9.78749638671875,-1.58974990234375
0.865392615722745,-0.8810662109375,9.87368764648437,-1.55144267578125
0.872466491699309,-0.924161840820312,9.82580361328125,-1.50355864257812
0.879540367675872,-0.93852705078125,9.83059201660156,-1.5322890625
0.886616098361638,-0.928950244140625,9.80186159667969,-1.58017309570312
0.893691829047403,-0.9193734375,9.82580361328125,-1.5322890625
0.900767559733168,-0.928950244140625,9.83538041992187,-1.59932670898438
0.907904226833864,-0.90021982421875,9.78270798339844,-1.52271225585937
0.91504089393456,-0.8810662109375,9.81143840332031,-1.56101948242187
0.922177561035255,-0.928950244140625,9.81143840332031,-1.52271225585937
0.929317089138555,-0.885854614257812,9.7683427734375,-1.54186586914062
0.936456617241854,-0.90021982421875,9.77313117675781,-1.455674609375
0.943596145345154,-0.847547387695312,9.73961235351562,-1.50355864257812
0.95073960367849,-0.847547387695312,9.77791958007812,-1.4939818359375
0.957883062011826,-0.895431420898437,9.77313117675781,-1.57538469238281
0.965026520345162,-0.895431420898437,9.75397756347656,-1.52271225585937
0.972171992458878,-0.876277807617187,9.7683427734375,-1.54665427246094
0.979317464572593,-0.890643017578125,9.7683427734375,-1.53707746582031
0.986462936686308,-0.8810662109375,9.78749638671875,-1.51792385253906
0.993613870280058,-0.876277807617187,9.74918916015625,-1.54665427246094
1.00076480387381,-0.909796630859375,9.79228479003906,-1.53707746582031
1.00791573746756,-0.90021982421875,9.79228479003906,-1.48440502929687
1.01513148236773,-0.952892260742187,9.76355437011719,-1.49877023925781
1.02234722726791,-0.948103857421875,9.74440075683594,-1.55623107910156
1.02956297216808,-0.90021982421875,9.75397756347656,-1.5322890625
1.03678301633041,-0.93852705078125,9.78749638671875,-1.51792385253906
1.04400306049274,-0.885854614257812,9.7683427734375,-1.55144267578125
1.05122310465507,-0.905008227539062,9.77313117675781,-1.50834704589844
1.058445111491,-0.905008227539062,9.80665,-1.54186586914062
1.06566711832694,-0.905008227539062,9.79707319335937,-1.50834704589844
1.07288912516287,-0.909796630859375,9.78270798339844,-1.52750065917969
1.08011304063596,-0.924161840820312,9.77791958007812,-1.54186586914062
1.08733695610906,-0.933738647460937,9.78270798339844,-1.52750065917969
1.09456087158215,-0.962469067382812,9.78270798339844,-1.49877023925781
1.10178661192503,-0.924161840820312,9.80186159667969,-1.50834704589844
1.10901235226792,-0.928950244140625,9.80665,-1.50355864257812
1.1162380926108,-0.885854614257812,9.82580361328125,-1.4939818359375
1.12353066183823,-0.914585034179687,9.79707319335937,-1.56101948242187
1.13082323106566,-0.9193734375,9.82101520996094,-1.52271225585937
1.13811580029309,-0.924161840820312,9.80186159667969,-1.55144267578125
1.14541111008042,-0.928950244140625,9.81622680664062,-1.50834704589844
1.15270641986775,-0.876277807617187,9.81622680664062,-1.52750065917969
1.16000172965508,-0.90021982421875,9.81143840332031,-1.54186586914062
1.16729899907782,-0.890643017578125,9.81622680664062,-1.48440502929687
1.17459626850057,-0.914585034179687,9.76355437011719,-1.47003981933594
1.18189353792332,-0.885854614257812,9.85932243652344,-1.50834704589844
1.18919265662991,-0.871489404296875,9.82101520996094,-1.47961662597656
1.19649177533651,-0.857124194335937,9.81143840332031,-1.52271225585937
1.20379089404311,-0.90021982421875,9.82101520996094,-1.5705962890625
1.2110918986004,-0.871489404296875,9.80665,-1.50834704589844
1.21839290315769,-0.852335791015625,9.79228479003906,-1.5322890625
1.22569390771498,-0.871489404296875,9.85453403320312,-1.53707746582031
1.23314353933391,-0.871489404296875,9.80665,-1.5322890625
1.24059317095283,-0.857124194335937,9.83538041992187,-1.49877023925781
1.24804280257176,-0.876277807617187,9.83538041992187,-1.5322890625
1.25550162462037,-0.895431420898437,9.83059201660156,-1.56580788574219
1.26296044666898,-0.871489404296875,9.80186159667969,-1.51792385253906
1.27041926871759,-0.914585034179687,9.82580361328125,-1.54186586914062
1.27788092854832,-0.928950244140625,9.83538041992187,-1.60411511230469
1.28534258837905,-0.890643017578125,9.84974562988281,-1.57538469238281
1.29280424820978,-0.909796630859375,9.82580361328125,-1.55623107910156
1.30026778857436,-0.93852705078125,9.83538041992187,-1.56580788574219
1.30773132893894,-0.8810662109375,9.84974562988281,-1.5705962890625
1.31519486930353,-0.90021982421875,9.88805285644531,-1.58974990234375
1.322660236057,-0.90021982421875,9.83538041992187,-1.58974990234375
1.33012560281047,-0.952892260742187,9.81622680664062,-1.53707746582031
1.33759096956395,-0.8810662109375,9.82101520996094,-1.61369191894531
1.34505856266291,-0.905008227539062,9.84016882324219,-1.54186586914062
1.35252615576187,-0.9193734375,9.85932243652344,-1.56580788574219
1.35999374886083,-0.890643017578125,9.83059201660156,-1.53707746582031
1.38251459890424,-0.86191259765625,9.83538041992187,-1.5322890625
1.40503544894765,-0.8810662109375,9.83059201660156,-1.4939818359375
1.42755629899106,-0.866701000976562,9.77313117675781,-1.4939818359375
1.43508606407353,-0.8810662109375,9.7683427734375,-1.4939818359375
1.442615829156,-0.871489404296875,9.80665,-1.50355864257812
1.45014559423846,-0.895431420898437,9.81622680664062,-1.47003981933594
1.45767921576624,-0.847547387695312,9.79707319335937,-1.52271225585937
1.46521283729402,-0.866701000976562,9.7683427734375,-1.48440502929687
1.4727464588218,-0.857124194335937,9.77313117675781,-1.49877023925781
1.48028478184698,-0.842758984375,9.78270798339844,-1.51792385253906
1.48782310487215,-0.837970581054687,9.77313117675781,-1.4939818359375
1.49536142789732,-0.885854614257812,9.75876596679687,-1.455674609375
1.50290671999802,-0.86191259765625,9.76355437011719,-1.44609780273437
1.51045201209872,-0.905008227539062,9.76355437011719,-1.44609780273437
1.51799730419941,-0.857124194335937,9.78270798339844,-1.54665427246094
1.52560316856573,-0.876277807617187,9.78270798339844,-1.50355864257812
1.53320903293205,-0.943315454101562,9.7683427734375,-1.52271225585937
1.54081489729838,-0.8810662109375,9.75397756347656,-1.52750065917969
1.54842373106574,-0.909796630859375,9.76355437011719,-1.48440502929687
1.5560325648331,-0.905008227539062,9.79707319335937,-1.52271225585937
1.56364139860047,-0.876277807617187,9.77791958007812,-1.51792385253906
1.57125240109613,-0.8810662109375,9.7683427734375,-1.55144267578125
1.57886340359179,-0.914585034179687,9.75397756347656,-1.55623107910156
1.58647440608745,-0.895431420898437,9.77791958007812,-1.54665427246094
1.59408727425151,-0.914585034179687,9.78749638671875,-1.52750065917969
1.60170014241558,-0.909796630859375,9.78270798339844,-1.56101948242187
1.60931301057964,-0.905008227539062,9.81143840332031,-1.53707746582031
1.61692775808398,-0.9193734375,9.82101520996094,-1.55623107910156
1.62454250558832,-0.890643017578125,9.75397756347656,-1.58974990234375
1.63215725309266,-0.905008227539062,9.84016882324219,-1.55623107910156
1.63984154714648,-0.871489404296875,9.81622680664062,-1.54186586914062
1.6475258412003,-0.90021982421875,9.83538041992187,-1.50834704589844
1.65521013525412,-0.909796630859375,9.82580361328125,-1.54186586914062
1.66290090077062,-0.924161840820312,9.80665,-1.5322890625
1.67059166628711,-0.933738647460937,9.83059201660156,-1.56580788574219
1.67828243180361,-0.8810662109375,9.8449572265625,-1.58974990234375
1.68597809000673,-0.924161840820312,9.80665,-1.5705962890625
1.69367374820986,-0.943315454101562,9.82101520996094,-1.54665427246094
1.70136940641298,-0.909796630859375,9.83538041992187,-1.54186586914062
1.70906872759354,-0.952892260742187,9.80186159667969,-1.56101948242187
1.71676804877409,-0.962469067382812,9.81622680664062,-1.58496149902344
1.72446736995465,-0.943315454101562,9.79707319335937,-1.5705962890625
1.73217097357878,-0.9193734375,9.79228479003906,-1.55144267578125
1.73987457720292,-0.952892260742187,9.81143840332031,-1.55623107910156
1.74757818082705,-0.914585034179687,9.84016882324219,-1.5705962890625
1.7554954300675,-0.933738647460937,9.83059201660156,-1.59932670898438
1.76341267930796,-0.90021982421875,9.84016882324219,-1.52750065917969
1.77132992854841,-0.909796630859375,9.8449572265625,-1.608903515625
1.7792504017472,-0.90021982421875,9.80665,-1.5705962890625
1.78717087494598,-0.909796630859375,9.79707319335937,-1.59932670898438
1.79509134814477,-0.895431420898437,9.78749638671875,-1.608903515625
1.80301516248938,-0.905008227539062,9.79707319335937,-1.57538469238281
1.810938976834,-0.933738647460937,9.78749638671875,-1.56580788574219
1.81886279117862,-0.90021982421875,9.83059201660156,-1.56580788574219
1.82679029443383,-0.9193734375,9.83538041992187,-1.5705962890625
1.83471779768903,-0.924161840820312,9.77791958007812,-1.49877023925781
1.84264530094424,-0.924161840820312,9.82101520996094,-1.53707746582031
1.85057819732011,-0.933738647460937,9.81622680664062,-1.59453830566406
1.85851109369598,-0.952892260742187,9.79707319335937,-1.61848032226562
1.86644399007184,-0.909796630859375,9.81143840332031,-1.56580788574219
1.87437911767601,-0.914585034179687,9.81622680664062,-1.61369191894531
1.88231424528018,-0.909796630859375,9.79707319335937,-1.61369191894531
1.89024937288434,-0.905008227539062,9.78749638671875,-1.61848032226562
1.9140602706708,-0.8810662109375,9.80186159667969,-1.57538469238281
1.93787116845726,-0.9193734375,9.81622680664062,-1.53707746582031
1.96168206624372,-0.895431420898437,9.75397756347656,-1.52271225585937
1.98561376253279,-0.9193734375,9.82101520996094,-1.5322890625
2.00954545882185,-0.952892260742187,9.78749638671875,-1.58496149902344
2.03347715511092,-0.928950244140625,9.81143840332031,-1.53707746582031
2.04147989219859,-0.914585034179687,9.80665,-1.58496149902344
2.04948262928626,-0.905008227539062,9.82580361328125,-1.5705962890625
2.05748536637394,-0.90021982421875,9.80186159667969,-1.54665427246094
2.0654922548288,-0.86191259765625,9.81143840332031,-1.56101948242187
2.07349914328366,-0.914585034179687,9.81622680664062,-1.57538469238281
2.08150603173853,-0.928950244140625,9.81622680664062,-1.58017309570312
2.0895301109486,-0.933738647460937,9.83538041992187,-1.65199914550781
2.09755419015867,-0.924161840820312,9.79228479003906,-1.55623107910156
2.10557826936873,-0.90021982421875,9.79707319335937,-1.58974990234375
2.11360642442516,-0.905008227539062,9.79228479003906,-1.52750065917969
2.12163457948158,-0.943315454101562,9.81143840332031,-1.50834704589844
2.129662734538,-0.909796630859375,9.81622680664062,-1.56580788574219
2.13773672726804,-0.914585034179687,9.81622680664062,-1.54186586914062
2.14581071999808,-0.9193734375,9.80665,-1.56101948242187
2.15388471272811,-0.9193734375,9.8449572265625,-1.58017309570312
2.16196155257187,-0.933738647460937,9.82580361328125,-1.59932670898438
2.17003839241562,-0.97683427734375,9.84016882324219,-1.5322890625
2.17811523225937,-0.943315454101562,9.78749638671875,-1.5705962890625
2.18619406830538,-0.933738647460937,9.82101520996094,-1.55144267578125
2.19427290435138,-0.9193734375,9.85453403320312,-1.51792385253906
2.20235174039739,-0.933738647460937,9.82101520996094,-1.56580788574219
2.21043243657795,-0.948103857421875,9.82580361328125,-1.58017309570312
2.2185131327585,-0.9193734375,9.79228479003906,-1.5705962890625
2.22659382893906,-0.943315454101562,9.80665,-1.55144267578125
2.23483890348333,-0.928950244140625,9.81143840332031,-1.52271225585937
2.2430839780276,-0.952892260742187,9.80665,-1.48919343261719
2.25132905257188,-0.9193734375,9.78270798339844,-1.5322890625
2.25957882861354,-0.895431420898437,9.78270798339844,-1.60411511230469
2.26782860465521,-0.924161840820312,9.79707319335937,-1.58974990234375
2.27607838069687,-0.8810662109375,9.7683427734375,-1.5705962890625
2.28433177088785,-0.885854614257812,9.7683427734375,-1.52750065917969
2.29258516107882,-0.86191259765625,9.80665,-1.59932670898438
2.30083855126979,-0.9193734375,9.7683427734375,-1.59453830566406
2.30909666672118,-0.914585034179687,9.77791958007812,-1.58017309570312
2.31735478217257,-0.928950244140625,9.79707319335937,-1.53707746582031
2.32561289762396,-0.90021982421875,9.79707319335937,-1.55623107910156
2.33387684087482,-0.909796630859375,9.80186159667969,-1.57538469238281
2.34214078412569,-0.909796630859375,9.81143840332031,-1.5705962890625
2.35040472737656,-0.924161840820312,9.77791958007812,-1.54665427246094
2.35867270404756,-0.905008227539062,9.80186159667969,-1.61369191894531
2.36694068071857,-0.909796630859375,9.79707319335937,-1.54186586914062
2.37520865738958,-0.924161840820312,9.81143840332031,-1.56580788574219
2.40423801836506,-0.924161840820312,9.77313117675781,-1.56101948242187
2.43326737934053,-0.928950244140625,9.80186159667969,-1.55623107910156
2.46229674031601,-0.909796630859375,9.74918916015625,-1.56101948242187
2.47060928089761,-0.924161840820312,9.77313117675781,-1.53707746582031
2.47892182147921,-0.909796630859375,9.78749638671875,-1.52750065917969
2.48723436206081,-0.933738647460937,9.79228479003906,-1.52750065917969
2.4955504259714,-0.9576806640625,9.77313117675781,-1.48440502929687
2.50386648988199,-0.924161840820312,9.8449572265625,-1.55144267578125
2.51218255379258,-0.93852705078125,9.79228479003906,-1.54186586914062
2.52050329402695,-0.895431420898437,9.80186159667969,-1.54186586914062
2.52882403426133,-0.9193734375,9.78749638671875,-1.5705962890625
2.53714477449571,-0.924161840820312,9.78749638671875,-1.56580788574219
2.54547087508165,-0.928950244140625,9.77791958007812,-1.5705962890625
2.55379697566758,-0.924161840820312,9.77791958007812,-1.52271225585937
2.56212307625352,-0.943315454101562,9.81143840332031,-1.5322890625
2.57050970602783,-0.909796630859375,9.78749638671875,-1.56101948242187
2.57889633580213,-0.909796630859375,9.79228479003906,-1.55623107910156
2.58728296557644,-0.905008227539062,9.81622680664062,-1.59453830566406
2.5956722680938,-0.890643017578125,9.7683427734375,-1.608903515625
2.60406157061117,-0.90021982421875,9.83059201660156,-1.56580788574219
2.61245087312853,-0.86191259765625,9.79707319335937,-1.58017309570312
2.62084221818062,-0.8810662109375,9.79228479003906,-1.59932670898438
2.6292335632327,-0.909796630859375,9.80665,-1.58974990234375
2.63762490828478,-0.90021982421875,9.80186159667969,-1.59932670898438
2.64601814059815,-0.905008227539062,9.78749638671875,-1.58974990234375
2.65441137291152,-0.9193734375,9.78270798339844,-1.63284553222656
2.66280460522488,-0.90021982421875,9.8449572265625,-1.59932670898438
2.67119964906169,-0.962469067382812,9.80665,-1.56580788574219
2.67959469289849,-0.924161840820312,9.79228479003906,-1.59453830566406
2.6879897367353,-0.952892260742187,9.85453403320312,-1.68072956542969
2.69645443801568,-0.948103857421875,9.7683427734375,-1.58496149902344
2.70491913929606,-0.928950244140625,9.79707319335937,-1.63284553222656
2.71338384057645,-0.952892260742187,9.78270798339844,-1.63284553222656
2.72185139558947,-0.90021982421875,9.75397756347656,-1.62805712890625
2.73031895060249,-0.943315454101562,9.81622680664062,-1.608903515625
2.73878650561551,-0.928950244140625,9.79707319335937,-1.54665427246094
2.74725605932645,-0.905008227539062,9.79228479003906,-1.61369191894531
2.75572561303739,-0.914585034179687,9.80665,-1.55144267578125
2.76419516674833,-0.914585034179687,9.82101520996094,-1.57538469238281
2.77266657907472,-0.9576806640625,9.82101520996094,-1.54665427246094
2.78113799140111,-0.9193734375,9.83059201660156,-1.61369191894531
2.7896094037275,-0.924161840820312,9.81622680664062,-1.56101948242187
2.79815761802872,-0.895431420898437,9.79228479003906,-1.61369191894531
2.80670583232993,-0.928950244140625,9.79228479003906,-1.52271225585937
2.81525404663115,-0.933738647460937,9.77791958007812,-1.63763393554687
2.82380670884903,-0.914585034179687,9.82580361328125,-1.54186586914062
2.83235937106691,-0.9193734375,9.80665,-1.56101948242187
2.84091203328479,-0.9576806640625,9.77791958007812,-1.55623107910156
2.84946719116239,-0.90021982421875,9.79228479003906,-1.59453830566406
2.85802234904,-0.943315454101562,9.7683427734375,-1.52750065917969
2.8665775069176,-0.905008227539062,9.77313117675781,-1.61369191894531
2.86877697436552,-0.9193734375,9.79707319335937,-1.57538469238281
2.87097644181344,-0.967257470703125,9.77313117675781,-1.51792385253906
2.87317590926136,-0.928950244140625,9.78749638671875,-1.58496149902344
2.87537348098445,-0.933738647460937,9.78270798339844,-1.55144267578125
2.87757105270754,-0.967257470703125,9.7683427734375,-1.56580788574219
2.87976862443063,-0.962469067382812,9.78270798339844,-1.58017309570312
2.88193053469539,-0.943315454101562,9.77313117675781,-1.60411511230469
2.88409244496014,-0.905008227539062,9.81622680664062,-1.59453830566406
2.8862543552249,-0.928950244140625,9.77791958007812,-1.56580788574219
2.88859667542889,-0.933738647460937,9.81622680664062,-1.6472107421875
2.89093899563288,-0.909796630859375,9.83538041992187,-1.56580788574219
2.89328131583687,-0.933738647460937,9.78270798339844,-1.54665427246094
2.89562725897922,-0.9576806640625,9.80665,-1.52750065917969
2.89797320212158,-0.962469067382812,9.83059201660156,-1.54665427246094
2.90031914526394,-0.986411083984375,9.80665,-1.56580788574219
2.90266665573486,-0.972045874023437,9.80186159667969,-1.57538469238281
2.90501416620579,-0.948103857421875,9.85932243652344,-1.54186586914062
2.90736167667671,-1.00556469726562,9.79707319335937,-1.48919343261719
2.90972380433513,-0.93852705078125,9.79707319335937,-1.51792385253906
2.91208593199354,-0.928950244140625,9.7683427734375,-1.50355864257812
2.91444805965196,-0.924161840820312,9.78749638671875,-1.48919343261719
2.91677963468451,-0.995987890625,9.80665,-1.54665427246094
2.91911120971706,-0.928950244140625,9.79707319335937,-1.57538469238281
2.92144278474961,-0.933738647460937,9.77313117675781,-1.57538469238281
2.92374189184596,-0.962469067382812,9.84016882324219,-1.56101948242187
2.92604099894232,-0.981622680664062,9.81622680664062,-1.61369191894531
2.92834010603868,-0.909796630859375,9.82580361328125,-1.56580788574219
2.93063624856255,-0.924161840820312,9.81622680664062,-1.60411511230469
2.93293239108642,-0.9576806640625,9.82101520996094,-1.54665427246094
2.93522853361029,-0.928950244140625,9.83059201660156,-1.54186586914062
2.94663449959335,-0.9193734375,9.78749638671875,-1.62326872558594
2.95804046557642,-0.909796630859375,9.80665,-1.49877023925781
2.96944643155949,-0.933738647460937,9.78749638671875,-1.5322890625
2.9717067566463,-0.90021982421875,9.79707319335937,-1.5705962890625
2.9739670817331,-0.905008227539062,9.75876596679687,-1.54186586914062
2.97622740681991,-0.90021982421875,9.74918916015625,-1.47003981933594
2.97848797968232,-0.9193734375,9.80186159667969,-1.53707746582031
2.98074855254473,-0.9193734375,9.75876596679687,-1.54186586914062
2.98300912540714,-0.914585034179687,9.80665,-1.49877023925781
2.98523718188501,-0.93852705078125,9.78749638671875,-1.44609780273437
2.98746523836287,-0.924161840820312,9.77791958007812,-1.5322890625
2.98969329484073,-0.933738647460937,9.82580361328125,-1.52750065917969
2.99184966257077,-0.928950244140625,9.78749638671875,-1.52271225585937
2.9940060303008,-0.914585034179687,9.77313117675781,-1.53707746582031
2.99616239803084,-0.962469067382812,9.77791958007812,-1.52271225585937
2.99834499959334,-0.9193734375,9.78749638671875,-1.48440502929687
3.00052760115584,-0.928950244140625,9.83538041992187,-1.46046301269531
3.00271020271833,-0.943315454101562,9.83538041992187,-1.46046301269531
3.00489128154863,-0.9193734375,9.85453403320312,-1.54665427246094
3.00707236037892,-0.914585034179687,9.81622680664062,-1.4939818359375
3.00925343920922,-0.895431420898437,9.82101520996094,-1.44609780273437
3.01143178686547,-0.928950244140625,9.80186159667969,-1.4939818359375
3.01361013452172,-0.933738647460937,9.79707319335937,-1.54186586914062
3.01578848217797,-0.909796630859375,9.81143840332031,-1.48440502929687
3.0179624959041,-0.8810662109375,9.80186159667969,-1.4939818359375
3.02013650963023,-0.871489404296875,9.81622680664062,-1.56101948242187
3.02231052335636,-0.924161840820312,9.80186159667969,-1.56101948242187
3.02448079153127,-0.90021982421875,9.79707319335937,-1.56101948242187
3.02665105970618,-0.885854614257812,9.81622680664062,-1.48919343261719
3.0288213278811,-0.866701000976562,9.82101520996094,-1.51792385253906
3.03105672235809,-0.871489404296875,9.80186159667969,-1.47961662597656
3.03329211683509,-0.8810662109375,9.82101520996094,-1.51313544921875
3.03552751131209,-0.86191259765625,9.83059201660156,-1.50355864257812
3.03774835741307,-0.890643017578125,9.81622680664062,-1.57538469238281
3.03996920351406,-0.905008227539062,9.83538041992187,-1.55623107910156
3.04219004961504,-0.9576806640625,9.81143840332031,-1.5322890625
3.0443318650809,-0.914585034179687,9.81622680664062,-1.54665427246094
3.04647368054675,-0.8810662109375,9.80665,-1.53707746582031
3.04861549601261,-0.885854614257812,9.82101520996094,-1.49877023925781
3.05073638940454,-0.837970581054687,9.82101520996094,-1.53707746582031
3.05285728279646,-0.857124194335937,9.82101520996094,-1.5322890625
3.05497817618839,-0.876277807617187,9.83059201660156,-1.53707746582031
3.05709770722138,-0.833182177734375,9.79707319335937,-1.50834704589844
3.05921723825437,-0.876277807617187,9.85453403320312,-1.47482822265625
3.06133676928736,-0.828393774414062,9.81622680664062,-1.44130939941406
3.06351599216062,-0.852335791015625,9.84974562988281,-1.4939818359375
3.06569521503389,-0.857124194335937,9.83538041992187,-1.47482822265625
3.06787443790715,-0.842758984375,9.81143840332031,-1.47961662597656
3.07013008059378,-0.876277807617187,9.78270798339844,-1.45088620605469
3.07238572328041,-0.8810662109375,9.79707319335937,-1.49877023925781
3.07464136596705,-0.82360537109375,9.79228479003906,-1.47482822265625
3.07689772951956,-0.852335791015625,9.80186159667969,-1.47482822265625
3.07915409307208,-0.842758984375,9.78270798339844,-1.4173673828125
3.0814104566246,-0.818816967773437,9.81143840332031,-1.44609780273437
3.08373338773353,-0.876277807617187,9.82101520996094,-1.455674609375
3.08605631884247,-0.866701000976562,9.83538041992187,-1.47961662597656
3.08837924995141,-0.895431420898437,9.80665,-1.42694418945312
3.09075020345619,-0.857124194335937,9.80665,-1.48440502929687
3.09312115696096,-0.857124194335937,9.7683427734375,-1.47961662597656
3.09549211046574,-0.90021982421875,9.78270798339844,-1.47003981933594
3.09791975542017,-0.895431420898437,9.81622680664062,-1.48919343261719
3.1003474003746,-0.948103857421875,9.80665,-1.47482822265625
3.10277504532903,-0.928950244140625,9.80186159667969,-1.47003981933594
3.10519967060029,-0.943315454101562,9.81143840332031,-1.54186586914062
3.10762429587156,-0.933738647460937,9.82580361328125,-1.5322890625
3.11004892114283,-0.952892260742187,9.80665,-1.51313544921875
3.11247544637069,-0.972045874023437,9.79228479003906,-1.47961662597656
3.11490197159856,-0.97683427734375,9.80665,-1.4939818359375
3.11732849682642,-0.986411083984375,9.81143840332031,-1.56580788574219
3.12218468226479,-0.995987890625,9.79707319335937,-1.59453830566406
3.12704086770316,-0.943315454101562,9.82101520996094,-1.58974990234375
3.13189705314152,-0.967257470703125,9.81622680664062,-1.59932670898438
3.13902967320446,-0.948103857421875,9.79707319335937,-1.5322890625
3.14616229326739,-0.905008227539062,9.77791958007812,-1.58974990234375
3.15329491333033,-0.909796630859375,9.74918916015625,-1.53707746582031
3.16035303686548,-0.905008227539062,9.81622680664062,-1.59453830566406
3.16741116040064,-0.905008227539062,9.78749638671875,-1.51792385253906
3.17446928393579,-0.93852705078125,9.79707319335937,-1.54186586914062
3.17677343904647,-0.914585034179687,9.81622680664062,-1.51792385253906
3.17907759415714,-0.9193734375,9.80186159667969,-1.58974990234375
3.18138174926782,-0.933738647460937,9.83538041992187,-1.51792385253906
3.18733359776499,-0.962469067382812,9.79707319335937,-1.55144267578125
3.19328544626217,-0.97683427734375,9.80186159667969,-1.5322890625
3.19923729475934,-0.972045874023437,9.77791958007812,-1.60411511230469
3.20165234998938,-0.933738647460937,9.78270798339844,-1.55144267578125
3.20406740521941,-0.967257470703125,9.82580361328125,-1.58496149902344
3.20648246044945,-0.986411083984375,9.80186159667969,-1.60411511230469
3.2088370002715,-0.9576806640625,9.81622680664062,-1.55623107910156
3.21119154009355,-0.914585034179687,9.77791958007812,-1.56101948242187
3.2135460799156,-0.967257470703125,9.77791958007812,-1.55144267578125
3.21591397857011,-0.933738647460937,9.81622680664062,-1.56580788574219
3.21828187722463,-0.9576806640625,9.80665,-1.54665427246094
3.22064977587914,-0.948103857421875,9.79228479003906,-1.55144267578125
3.22301946348765,-0.933738647460937,9.80665,-1.55144267578125
3.22538915109615,-0.909796630859375,9.78270798339844,-1.51792385253906
3.22775883870466,-0.928950244140625,9.77791958007812,-1.52271225585937
3.23013070762827,-0.933738647460937,9.7683427734375,-1.48919343261719
3.23250257655189,-0.93852705078125,9.82580361328125,-1.50355864257812
3.2348744454755,-0.9193734375,9.77791958007812,-1.51313544921875
3.24193067626977,-0.909796630859375,9.83059201660156,-1.56101948242187
3.24898690706404,-0.93852705078125,9.81622680664062,-1.58017309570312
3.25604313785831,-0.866701000976562,9.83059201660156,-1.54665427246094
3.25838586094859,-0.905008227539062,9.79228479003906,-1.52271225585937
3.26072858403886,-0.86191259765625,9.81143840332031,-1.47003981933594
3.26307130712914,-0.9193734375,9.80186159667969,-1.5322890625
3.26541449191646,-0.876277807617187,9.84016882324219,-1.55623107910156
3.26775767670379,-0.90021982421875,9.8449572265625,-1.53707746582031
3.27010086149112,-0.866701000976562,9.81622680664062,-1.51313544921875
3.27244400667341,-0.9193734375,9.78749638671875,-1.5322890625
3.2747871518557,-0.8810662109375,9.82580361328125,-1.56580788574219
3.277130297038,-0.914585034179687,9.82101520996094,-1.54665427246094
3.27932981385657,-0.890643017578125,9.80665,-1.54186586914062
3.28152933067515,-0.866701000976562,9.81143840332031,-1.52750065917969
3.28372884749372,-0.876277807617187,9.80665,-1.50834704589844
3.28598557741994,-0.857124194335937,9.80186159667969,-1.51792385253906
3.28824230734615,-0.86191259765625,9.79707319335937,-1.52271225585937
3.29049903727237,-0.8810662109375,9.79228479003906,-1.51313544921875
3.29275554725501,-0.857124194335937,9.79707319335937,-1.47482822265625
3.29501205723765,-0.885854614257812,9.79707319335937,-1.46525141601562
3.29726856722029,-0.914585034179687,9.75876596679687,-1.51313544921875
3.2995250737307,-0.895431420898437,9.78270798339844,-1.46046301269531
3.30178158024112,-0.852335791015625,9.77791958007812,-1.51313544921875
3.30403808675153,-0.871489404296875,9.81143840332031,-1.47482822265625
3.30636481841386,-0.852335791015625,9.78749638671875,-1.53707746582031
3.30869155007619,-0.852335791015625,9.83538041992187,-1.48440502929687
3.31101828173851,-0.895431420898437,9.81143840332031,-1.47482822265625
3.31342235715084,-0.866701000976562,9.81622680664062,-1.48440502929687
3.31582643256316,-0.857124194335937,9.80665,-1.52271225585937
3.31823050797549,-0.8810662109375,9.80665,-1.51792385253906
3.32063728586177,-0.852335791015625,9.81143840332031,-1.48440502929687
3.32304406374805,-0.871489404296875,9.78749638671875,-1.48440502929687
3.32545084163434,-0.86191259765625,9.79707319335937,-1.49877023925781
3.32783862320986,-0.8810662109375,9.83059201660156,-1.5322890625
3.33022640478538,-0.857124194335937,9.78749638671875,-1.4939818359375
3.3326141863609,-0.890643017578125,9.84016882324219,-1.48440502929687
3.3349878161352,-0.82360537109375,9.80186159667969,-1.55144267578125
3.3373614459095,-0.818816967773437,9.80186159667969,-1.58496149902344
3.33973507568381,-0.833182177734375,9.81622680664062,-1.50834704589844
3.34210936029752,-0.842758984375,9.80665,-1.53707746582031
3.34448364491123,-0.890643017578125,9.82580361328125,-1.51792385253906
3.34685792952494,-0.852335791015625,9.84016882324219,-1.54665427246094
3.34923206982442,-0.866701000976562,9.80665,-1.53707746582031
3.3516062101239,-0.857124194335937,9.82101520996094,-1.51313544921875
3.35398035042338,-0.852335791015625,9.79228479003906,-1.53707746582031
3.3565523615996,-0.885854614257812,9.82101520996094,-1.54665427246094
3.35912437277582,-0.8810662109375,9.86411083984375,-1.5322890625
3.36169638395204,-0.842758984375,9.81143840332031,-1.51313544921875
3.36928318082703,-0.895431420898437,9.78270798339844,-1.54665427246094
3.37686997770202,-0.90021982421875,9.80665,-1.58496149902344
3.38445677457702,-0.895431420898437,9.79707319335937,-1.54186586914062
3.38696675916903,-0.914585034179687,9.81143840332031,-1.54186586914062
3.38947674376105,-0.852335791015625,9.77791958007812,-1.55623107910156
3.39198672835306,-0.866701000976562,9.81622680664062,-1.58496149902344
3.39449686550584,-0.914585034179687,9.8449572265625,-1.57538469238281
3.39700700265862,-0.885854614257812,9.82580361328125,-1.53707746582031
3.39951713981139,-0.890643017578125,9.80665,-1.49877023925781
3.40202723659959,-0.847547387695312,9.79228479003906,-1.5322890625
3.40453733338778,-0.885854614257812,9.7683427734375,-1.50834704589844
3.40704743017598,-0.890643017578125,9.77313117675781,-1.59453830566406
3.40948975884351,-0.866701000976562,9.79707319335937,-1.57538469238281
3.41193208751104,-0.9193734375,9.78749638671875,-1.56580788574219
3.41437441617857,-0.847547387695312,9.79228479003906,-1.50834704589844
3.42870769807962,-0.943315454101562,9.79228479003906,-1.56101948242187
3.44304097998066,-0.928950244140625,9.77791958007812,-1.58496149902344
3.4573742618817,-0.943315454101562,9.75876596679687,-1.51792385253906
3.45964159120028,-0.93852705078125,9.78749638671875,-1.54665427246094
3.46190892051886,-0.909796630859375,9.77313117675781,-1.50834704589844
3.46417624983744,-0.905008227539062,9.81622680664062,-1.50355864257812
3.46644363254143,-0.890643017578125,9.7683427734375,-1.56101948242187
3.46871101524543,-0.909796630859375,9.78270798339844,-1.51792385253906
3.47097839794942,-0.948103857421875,9.77313117675781,-1.58017309570312
3.47324243701192,-0.905008227539062,9.78749638671875,-1.51313544921875
3.47550647607442,-0.90021982421875,9.82580361328125,-1.54665427246094
3.47777051513692,-0.876277807617187,9.75397756347656,-1.55144267578125
3.4800341928713,-0.909796630859375,9.77313117675781,-1.58496149902344
3.48229787060568,-0.9193734375,9.80665,-1.51313544921875
3.48456154834005,-0.885854614257812,9.79228479003906,-1.5322890625
3.48688657493511,-0.876277807617187,9.80186159667969,-1.59453830566406
3.48921160153016,-0.852335791015625,9.75397756347656,-1.58496149902344
3.49153662812521,-0.871489404296875,9.81143840332031,-1.62805712890625
3.49386524410828,-0.90021982421875,9.77313117675781,-1.5705962890625
3.49619386009136,-0.924161840820312,9.76355437011719,-1.52750065917969
3.49852247607443,-0.9193734375,9.78270798339844,-1.54186586914062
3.5008538318687,-0.905008227539062,9.80665,-1.5705962890625
3.50318518766296,-0.86191259765625,9.82580361328125,-1.54665427246094
3.50551654345723,-0.842758984375,9.83538041992187,-1.58017309570312
3.50783214730923,-0.890643017578125,9.81622680664062,-1.49877023925781
3.51014775116123,-0.905008227539062,9.80186159667969,-1.5322890625
3.51246335501323,-0.909796630859375,9.82580361328125,-1.46525141601562
3.51476064829665,-0.86191259765625,9.81622680664062,-1.49877023925781
3.51705794158006,-0.866701000976562,9.81143840332031,-1.51792385253906
3.51935523486348,-0.890643017578125,9.81622680664062,-1.51792385253906
3.52169819308831,-0.895431420898437,9.82580361328125,-1.49877023925781
3.52404115131314,-0.890643017578125,9.84974562988281,-1.58974990234375
3.52638410953797,-0.857124194335937,9.81143840332031,-1.54186586914062
3.52872384922981,-0.86191259765625,9.82580361328125,-1.56101948242187
3.53106358892165,-0.837970581054687,9.83059201660156,-1.58496149902344
3.53340332861349,-0.82360537109375,9.83059201660156,-1.54665427246094
3.53574100580532,-0.842758984375,9.79228479003906,-1.53707746582031
3.53807868299716,-0.852335791015625,9.84974562988281,-1.54665427246094
3.540416360189,-0.837970581054687,9.78749638671875,-1.56101948242187
3.54273873616556,-0.90021982421875,9.82580361328125,-1.56101948242187
3.54506111214212,-0.852335791015625,9.82101520996094,-1.62326872558594
3.54738348811868,-0.847547387695312,9.81143840332031,-1.56580788574219
3.54970360747632,-0.842758984375,9.80186159667969,-1.59453830566406
3.55202372683396,-0.890643017578125,9.82101520996094,-1.55144267578125
3.5543438461916,-0.895431420898437,9.78749638671875,-1.56101948242187
3.55668711919507,-0.90021982421875,9.85932243652344,-1.608903515625
3.55903039219854,-0.9193734375,9.83538041992187,-1.59453830566406
3.56137366520201,-0.928950244140625,9.81622680664062,-1.61848032226562
3.56379722064906,-0.909796630859375,9.81622680664062,-1.62805712890625
3.56622077609611,-0.905008227539062,9.80665,-1.55144267578125
3.56864433154315,-0.909796630859375,9.82580361328125,-1.5705962890625
3.57107309250236,-0.866701000976562,9.79707319335937,-1.53707746582031
3.57350185346156,-0.90021982421875,9.77791958007812,-1.57538469238281
3.57593061442077,-0.890643017578125,9.80186159667969,-1.55623107910156
3.57835948486348,-0.8810662109375,9.80186159667969,-1.61369191894531
3.58078835530619,-0.928950244140625,9.81622680664062,-1.58496149902344
3.5832172257489,-0.890643017578125,9.80665,-1.61848032226562
3.585483610189,-0.866701000976562,9.83059201660156,-1.51313544921875
3.58774999462911,-0.866701000976562,9.81622680664062,-1.5322890625
3.59001637906921,-0.895431420898437,9.7683427734375,-1.53707746582031
3.59228008078362,-0.924161840820312,9.77791958007812,-1.57538469238281
3.59454378249804,-0.90021982421875,9.77791958007812,-1.55144267578125
3.59680748421245,-0.914585034179687,9.80665,-1.56580788574219
3.59906944037564,-0.9193734375,9.84016882324219,-1.51792385253906
3.60133139653884,-0.928950244140625,9.80665,-1.55144267578125
3.60359335270203,-0.924161840820312,9.81622680664062,-1.50355864257812
3.60585255322287,-0.8810662109375,9.76355437011719,-1.50355864257812
3.6081117537437,-0.928950244140625,9.79228479003906,-1.51792385253906
3.61037095426454,-0.928950244140625,9.81143840332031,-1.52750065917969
3.61625987004507,-0.905008227539062,9.79707319335937,-1.52750065917969
3.6221487858256,-0.905008227539062,9.7683427734375,-1.56101948242187
3.62803770160613,-0.933738647460937,9.79707319335937,-1.4939818359375
3.63042599532539,-0.9193734375,9.83059201660156,-1.55144267578125
3.63281428904465,-0.895431420898437,9.82101520996094,-1.48919343261719
3.6352025827639,-0.928950244140625,9.79707319335937,-1.50834704589844
3.63757923220509,-0.90021982421875,9.82101520996094,-1.55623107910156
3.63995588164628,-0.890643017578125,9.78749638671875,-1.56580788574219
3.64233253108747,-0.9193734375,9.80186159667969,-1.50834704589844
3.64470086615691,-0.905008227539062,9.85453403320312,-1.52271225585937
3.64706920122636,-0.885854614257812,9.82580361328125,-1.51792385253906
3.6494375362958,-0.928950244140625,9.82101520996094,-1.4939818359375
3.65180593657792,-0.943315454101562,9.84016882324219,-1.5322890625
3.65417433686004,-0.933738647460937,9.81143840332031,-1.51313544921875
3.65654273714215,-0.9193734375,9.83538041992187,-1.4939818359375
3.65891121023243,-0.909796630859375,9.83059201660156,-1.47961662597656
3.66127968332272,-0.909796630859375,9.79228479003906,-1.54665427246094
3.663648156413,-0.885854614257812,9.80186159667969,-1.52750065917969
3.67076195198592,-0.9193734375,9.79707319335937,-1.58974990234375
3.67787574755884,-0.890643017578125,9.79707319335937,-1.5322890625
3.68498954313176,-0.905008227539062,9.77791958007812,-1.50834704589844
3.68733740120467,-0.890643017578125,9.73482395019531,-1.51792385253906
3.68968525927758,-0.962469067382812,9.79228479003906,-1.49877023925781
3.6920331173505,-0.905008227539062,9.7683427734375,-1.59453830566406
3.69438317724633,-0.90021982421875,9.7683427734375,-1.61848032226562
3.69673323714216,-0.933738647460937,9.78270798339844,-1.5705962890625
3.69908329703799,-0.90021982421875,9.79707319335937,-1.54665427246094
3.70144810845292,-0.924161840820312,9.83059201660156,-1.60411511230469
3.70381291986786,-0.952892260742187,9.78749638671875,-1.54665427246094
3.70617773128279,-0.943315454101562,9.81143840332031,-1.57538469238281
3.7085448767906,-0.914585034179687,9.79228479003906,-1.53707746582031
3.71091202229841,-0.928950244140625,9.78749638671875,-1.4939818359375
3.71327916780623,-0.914585034179687,9.77791958007812,-1.57538469238281
3.71562307286265,-0.943315454101562,9.80665,-1.53707746582031
3.71796697791907,-0.909796630859375,9.79707319335937,-1.49877023925781
3.72031088297549,-0.924161840820312,9.79228479003906,-1.54665427246094
3.7226545315215,-0.90021982421875,9.79228479003906,-1.55623107910156
3.7249981800675,-0.895431420898437,9.79228479003906,-1.59453830566406
3.72734182861351,-0.928950244140625,9.83538041992187,-1.56101948242187
3.72968575580535,-0.924161840820312,9.83059201660156,-1.608903515625
3.73202968299719,-0.924161840820312,9.83538041992187,-1.59453830566406
3.73437361018903,-0.914585034179687,9.80186159667969,-1.60411511230469
3.73679142963347,-0.905008227539062,9.81622680664062,-1.58496149902344
3.73920924907791,-0.924161840820312,9.79228479003906,-1.57538469238281
3.74162706852236,-0.928950244140625,9.79707319335937,-1.57538469238281
3.74397097412131,-0.90021982421875,9.83538041992187,-1.56101948242187
3.74631487972027,-0.914585034179687,9.82101520996094,-1.63763393554687
3.74865878531923,-0.90021982421875,9.79228479003906,-1.5705962890625
3.75100042909093,-0.924161840820312,9.85932243652344,-1.58974990234375
3.75334207286264,-0.90021982421875,9.81622680664062,-1.54186586914062
3.75568371663434,-0.9193734375,9.80665,-1.61369191894531
3.75802475038001,-0.8810662109375,9.83538041992187,-1.53707746582031
3.76036578412567,-0.93852705078125,9.82580361328125,-1.59453830566406
3.76270681787133,-0.905008227539062,9.83538041992187,-1.52271225585937
3.76504781808834,-0.890643017578125,9.82101520996094,-1.55144267578125
3.76738881830535,-0.933738647460937,9.79707319335937,-1.52271225585937
3.76972981852236,-0.9193734375,9.77313117675781,-1.52750065917969
3.7720703239477,-0.909796630859375,9.80665,-1.54665427246094
3.77441082937305,-0.885854614257812,9.78749638671875,-1.5322890625
3.7767513347984,-0.928950244140625,9.83059201660156,-1.5322890625
3.78023191574458,-0.905008227539062,9.8449572265625,-1.53707746582031
3.78371249669076,-0.890643017578125,9.81622680664062,-1.51313544921875
3.78719307763694,-0.914585034179687,9.79228479003906,-1.4939818359375
3.78938363037132,-0.876277807617187,9.78270798339844,-1.50834704589844
3.7915741831057,-0.876277807617187,9.78270798339844,-1.52271225585937
3.79376473584007,-0.895431420898437,9.77313117675781,-1.55144267578125
3.79595427680145,-0.885854614257812,9.80186159667969,-1.52750065917969
3.79814381776282,-0.90021982421875,9.7683427734375,-1.55623107910156
3.80033335872419,-0.90021982421875,9.79707319335937,-1.57538469238281
3.80251391064476,-0.933738647460937,9.80665,-1.55623107910156
3.80469446256534,-0.9576806640625,9.80665,-1.54665427246094
3.80687501448591,-0.928950244140625,9.80186159667969,-1.52750065917969
3.80904677989389,-0.928950244140625,9.80665,-1.56580788574219
3.81121854530188,-0.909796630859375,9.79228479003906,-1.52750065917969
3.81339031070987,-0.924161840820312,9.78270798339844,-1.55144267578125
3.81561945724849,-0.943315454101562,9.82580361328125,-1.59932670898438
3.81784860378712,-0.928950244140625,9.80665,-1.50834704589844
3.82007775032575,-0.972045874023437,9.81143840332031,-1.54186586914062
3.82230689702714,-0.928950244140625,9.83059201660156,-1.51313544921875
3.82453604372852,-0.981622680664062,9.81143840332031,-1.53707746582031
3.82676519042991,-0.9576806640625,9.83059201660156,-1.53707746582031
3.82899439451339,-0.914585034179687,9.80186159667969,-1.58496149902344
3.83122359859687,-0.93852705078125,9.80665,-1.57538469238281
3.83345280268035,-0.93852705078125,9.82101520996094,-1.55144267578125
3.83567571556735,-0.914585034179687,9.79228479003906,-1.51313544921875
3.83789862845436,-0.943315454101562,9.8449572265625,-1.54665427246094
3.84012154134137,-0.909796630859375,9.80665,-1.54665427246094
3.84234221771941,-0.93852705078125,9.81143840332031,-1.56101948242187
3.84456289409744,-0.885854614257812,9.8449572265625,-1.52271225585937
3.84678357047548,-0.895431420898437,9.83059201660156,-1.61369191894531
3.84906049320045,-0.933738647460937,9.81622680664062,-1.52750065917969
3.85133741592543,-0.928950244140625,9.83538041992187,-1.50355864257812
3.8536143386504,-0.928950244140625,9.83538041992187,-1.50834704589844
3.8558858638421,-0.866701000976562,9.8449572265625,-1.53707746582031
3.85815738903379,-0.943315454101562,9.8449572265625,-1.48919343261719
3.86042891422549,-0.895431420898437,9.8449572265625,-1.54665427246094
3.86269960069467,-0.890643017578125,9.81143840332031,-1.52271225585937
3.86497028716386,-0.871489404296875,9.85453403320312,-1.50355864257812
3.86724097363304,-0.871489404296875,9.84974562988281,-1.46525141601562
3.86951116623286,-0.852335791015625,9.81143840332031,-1.47961662597656
3.87178135883269,-0.90021982421875,9.83538041992187,-1.45088620605469
3.87405155143251,-0.837970581054687,9.83538041992187,-1.51792385253906
3.87632177056229,-0.871489404296875,9.79228479003906,-1.46046301269531
3.87859198969207,-0.8810662109375,9.82580361328125,-1.51313544921875
3.88086220882184,-0.833182177734375,9.82580361328125,-1.53707746582031
3.88319885807314,-0.876277807617187,9.81143840332031,-1.44609780273437
3.88553550732445,-0.871489404296875,9.82101520996094,-1.51792385253906
3.88787215657575,-0.857124194335937,9.79707319335937,-1.47003981933594
3.89017836642818,-0.885854614257812,9.80186159667969,-1.4939818359375
3.89248457628061,-0.871489404296875,9.81622680664062,-1.48440502929687
3.89479078613304,-0.876277807617187,9.80665,-1.50355864257812
3.89706538802106,-0.895431420898437,9.79228479003906,-1.5322890625
3.89933998990908,-0.9193734375,9.78749638671875,-1.54665427246094
3.9016145917971,-0.90021982421875,9.80665,-1.58974990234375
3.90389039203582,-0.909796630859375,9.80665,-1.56580788574219
3.90616619227454,-0.924161840820312,9.77313117675781,-1.56580788574219
3.90844199251326,-0.914585034179687,9.78270798339844,-1.5705962890625
3.91071922211395,-0.914585034179687,9.84974562988281,-1.56580788574219
3.91299645171464,-0.914585034179687,9.80186159667969,-1.59453830566406
3.91527368131534,-0.857124194335937,9.83059201660156,-1.57538469238281
3.91761673735917,-0.914585034179687,9.82101520996094,-1.56101948242187
3.91995979340301,-0.924161840820312,9.83059201660156,-1.63284553222656
3.92230284944684,-0.90021982421875,9.79228479003906,-1.68072956542969
3.92461541970509,-0.876277807617187,9.80186159667969,-1.5705962890625
3.92692798996333,-0.905008227539062,9.78749638671875,-1.608903515625
3.92924056022158,-0.924161840820312,9.78749638671875,-1.57538469238281
3.93151993549284,-0.90021982421875,9.79228479003906,-1.58496149902344
3.93379931076411,-0.9193734375,9.79228479003906,-1.52750065917969
3.93607868603538,-0.876277807617187,9.78270798339844,-1.58017309570312
3.93835590158443,-0.847547387695312,9.80186159667969,-1.55623107910156
3.94063311713347,-0.885854614257812,9.82101520996094,-1.66157595214844
3.94291033268252,-0.852335791015625,9.78749638671875,-1.60411511230469
3.94525591661264,-0.890643017578125,9.75876596679687,-1.55144267578125
3.94760150054277,-0.842758984375,9.76355437011719,-1.61369191894531
3.94994708447289,-0.837970581054687,9.74918916015625,-1.55623107910156
3.95229535259355,-0.876277807617187,9.72524714355469,-1.5322890625
3.95464362071421,-0.857124194335937,9.77791958007812,-1.56580788574219
3.95699188883487,-0.8810662109375,9.74918916015625,-1.59932670898438
3.95931191444251,-0.86191259765625,9.73961235351562,-1.52271225585937
3.96163194005015,-0.842758984375,9.73961235351562,-1.608903515625
3.96395196565779,-0.857124194335937,9.7683427734375,-1.57538469238281
3.96620647032359,-0.876277807617187,9.75397756347656,-1.56101948242187
3.96846097498938,-0.82360537109375,9.77791958007812,-1.54665427246094
3.97071547965518,-0.895431420898437,9.77313117675781,-1.60411511230469
3.97293320073808,-0.90021982421875,9.76355437011719,-1.61369191894531
3.97515092182098,-0.8810662109375,9.79228479003906,-1.52750065917969
3.97736864290388,-0.90021982421875,9.77791958007812,-1.5705962890625
3.97955071278235,-0.90021982421875,9.78749638671875,-1.56101948242187
3.98173278266082,-0.9193734375,9.77313117675781,-1.5705962890625
3.9839148525393,-0.90021982421875,9.79228479003906,-1.56580788574219
3.98606166807749,-0.909796630859375,9.7683427734375,-1.56580788574219
3.98820848361569,-0.885854614257812,9.80186159667969,-1.58496149902344
3.99035529915388,-0.914585034179687,9.81622680664062,-1.54665427246094
3.99242022699676,-0.952892260742187,9.80186159667969,-1.52750065917969
3.99448515483964,-0.914585034179687,9.80665,-1.56580788574219
3.99655008268252,-0.924161840820312,9.81622680664062,-1.49877023925781
3.99857098030622,-0.905008227539062,9.80665,-1.56580788574219
4.00059187792992,-0.928950244140625,9.83059201660156,-1.53707746582031
4.00261277555362,-0.895431420898437,9.81622680664062,-1.5705962890625
4.00463254823157,-0.9193734375,9.8449572265625,-1.50834704589844
4.00665232090952,-0.8810662109375,9.77791958007812,-1.62326872558594
4.00867209358747,-0.895431420898437,9.81143840332031,-1.49877023925781
4.01075769983385,-0.885854614257812,9.81143840332031,-1.58017309570312
4.01284330608024,-0.866701000976562,9.80665,-1.57538469238281
4.01492891232662,-0.890643017578125,9.83538041992187,-1.56101948242187
4.0170140803858,-0.876277807617187,9.83538041992187,-1.57538469238281
4.01909924844497,-0.871489404296875,9.76355437011719,-1.51313544921875
4.02118441650414,-0.890643017578125,9.81143840332031,-1.58974990234375
4.02327041398679,-0.924161840820312,9.82580361328125,-1.56101948242187
4.02535641146943,-0.924161840820312,9.81622680664062,-1.58017309570312
4.02744240895207,-0.871489404296875,9.80665,-1.51792385253906
4.029528829742,-0.905008227539062,9.80665,-1.54665427246094
4.03161525053193,-0.866701000976562,9.77791958007812,-1.49877023925781
4.03370167132187,-0.857124194335937,9.81143840332031,-1.55623107910156
4.03578845009791,-0.871489404296875,9.80665,-1.55144267578125
4.03787522887395,-0.857124194335937,9.80665,-1.56101948242187
4.03996200764999,-0.852335791015625,9.79228479003906,-1.56101948242187
4.04211796451848,-0.885854614257812,9.78270798339844,-1.55623107910156
4.04427392138697,-0.876277807617187,9.78749638671875,-1.608903515625
4.04642987825546,-0.890643017578125,9.79707319335937,-1.63284553222656
4.04858928987655,-0.852335791015625,9.81143840332031,-1.57538469238281
4.05074870149765,-0.890643017578125,9.79707319335937,-1.59932670898438
4.05290811311874,-0.93852705078125,9.82580361328125,-1.608903515625
4.05507004568168,-0.885854614257812,9.80186159667969,-1.52271225585937
4.05723197824461,-0.871489404296875,9.80186159667969,-1.608903515625
4.05939391080755,-0.909796630859375,9.81622680664062,-1.60411511230469
4.06155754231797,-0.905008227539062,9.80665,-1.56580788574219
4.06372117382838,-0.8810662109375,9.80186159667969,-1.57538469238281
4.0658848053388,-0.833182177734375,9.82580361328125,-1.51792385253906
4.06803577092853,-0.885854614257812,9.80665,-1.56101948242187
4.07018673651827,-0.885854614257812,9.7683427734375,-1.57538469238281
4.072337702108,-0.8810662109375,9.80186159667969,-1.53707746582031
4.07449119010442,-0.895431420898437,9.80186159667969,-1.60411511230469
4.07664467810085,-0.928950244140625,9.77313117675781,-1.61848032226562
4.07879816609727,-0.890643017578125,9.78749638671875,-1.66157595214844
4.08091172241237,-0.914585034179687,9.7683427734375,-1.62805712890625
4.08302527872748,-0.9193734375,9.7683427734375,-1.59932670898438
4.08513883504258,-0.90021982421875,9.83538041992187,-1.59932670898438
4.08724771362331,-0.890643017578125,9.79228479003906,-1.5705962890625
4.08935659220404,-0.90021982421875,9.78749638671875,-1.5322890625
4.09146547078477,-0.890643017578125,9.80186159667969,-1.60411511230469
4.09357188517278,-0.890643017578125,9.80186159667969,-1.55623107910156
4.0956782995608,-0.93852705078125,9.81143840332031,-1.57538469238281
4.09778471394882,-0.885854614257812,9.78749638671875,-1.55623107910156
4.09987535880559,-0.857124194335937,9.79228479003906,-1.62326872558594
4.10196600366236,-0.890643017578125,9.78270798339844,-1.52750065917969
4.10405664851913,-0.909796630859375,9.79707319335937,-1.59453830566406
4.10621179500351,-0.8810662109375,9.80665,-1.55144267578125
4.10836694148789,-0.866701000976562,9.78270798339844,-1.52271225585937
4.11052208797227,-0.914585034179687,9.76355437011719,-1.51792385253906
4.11268023304605,-0.885854614257812,9.79228479003906,-1.59932670898438
4.11483837811983,-0.86191259765625,9.7683427734375,-1.59932670898438
4.11699652319362,-0.837970581054687,9.79707319335937,-1.55144267578125
4.11914574077174,-0.9193734375,9.80186159667969,-1.56580788574219
4.12129495834987,-0.885854614257812,9.77313117675781,-1.56580788574219
4.12344417592799,-0.8810662109375,9.77791958007812,-1.60411511230469
4.12557928018146,-0.871489404296875,9.75876596679687,-1.61369191894531
4.12771438443493,-0.895431420898437,9.80186159667969,-1.56580788574219
4.1298494886884,-0.905008227539062,9.79228479003906,-1.51792385253906
4.13197404250785,-0.914585034179687,9.79707319335937,-1.65199914550781
4.13409859632729,-0.866701000976562,9.77791958007812,-1.62326872558594
4.13622315014673,-0.905008227539062,9.80186159667969,-1.67594116210937
4.13840772186982,-0.928950244140625,9.80665,-1.65199914550781
4.14059229359291,-0.890643017578125,9.78270798339844,-1.61848032226562
4.14277686531601,-0.885854614257812,9.78270798339844,-1.66157595214844
4.14496174769448,-0.871489404296875,9.78270798339844,-1.60411511230469
4.14714663007295,-0.866701000976562,9.78270798339844,-1.63284553222656
4.14933151245142,-0.90021982421875,9.82101520996094,-1.60411511230469
4.15151801114934,-0.86191259765625,9.80665,-1.62805712890625
4.15370450984725,-0.890643017578125,9.82101520996094,-1.5705962890625
4.15589100854517,-0.8810662109375,9.78270798339844,-1.61848032226562
4.15807460923961,-0.866701000976562,9.7683427734375,-1.64242233886719
4.16025820993406,-0.852335791015625,9.80186159667969,-1.62805712890625
4.1624418106285,-0.90021982421875,9.81622680664062,-1.5705962890625
4.16456389884465,-0.866701000976562,9.81622680664062,-1.54186586914062
4.16668598706079,-0.9193734375,9.84016882324219,-1.59453830566406
4.16880807527694,-0.890643017578125,9.79228479003906,-1.59932670898438
4.17099262041583,-0.895431420898437,9.79228479003906,-1.59932670898438
4.17317716555472,-0.885854614257812,9.79707319335937,-1.63763393554687
4.1753617106936,-0.876277807617187,9.80186159667969,-1.58017309570312
4.17754769832381,-0.8810662109375,9.78270798339844,-1.608903515625
4.17973368595402,-0.890643017578125,9.84016882324219,-1.58496149902344
4.18191967358423,-0.9193734375,9.80665,-1.64242233886719
4.18403609513371,-0.90021982421875,9.81143840332031,-1.65199914550781
4.18615251668319,-0.876277807617187,9.77791958007812,-1.608903515625
4.18826893823266,-0.842758984375,9.7683427734375,-1.61848032226562
4.19030767532034,-0.857124194335937,9.77791958007812,-1.65678754882812
4.19234641240801,-0.8810662109375,9.80665,-1.64242233886719
4.19438514949568,-0.876277807617187,9.7683427734375,-1.59932670898438
4.19640541837589,-0.890643017578125,9.82580361328125,-1.59453830566406
4.1984256872561,-0.866701000976562,9.77313117675781,-1.60411511230469
4.2004459561363,-0.871489404296875,9.75876596679687,-1.65199914550781
4.2025297842613,-0.8810662109375,9.77791958007812,-1.61848032226562
4.2046136123863,-0.90021982421875,9.76355437011719,-1.54665427246094
4.2066974405113,-0.857124194335937,9.77313117675781,-1.58496149902344
4.20878040774221,-0.857124194335937,9.72524714355469,-1.62326872558594
4.21086337497311,-0.905008227539062,9.75397756347656,-1.61369191894531
4.21294634220402,-0.890643017578125,9.79707319335937,-1.65678754882812
4.21502762410506,-0.905008227539062,9.7683427734375,-1.65199914550781
4.2171089060061,-0.9193734375,9.77313117675781,-1.68072956542969
4.21919018790714,-0.890643017578125,9.78749638671875,-1.66157595214844
4.22126964146617,-0.924161840820312,9.78749638671875,-1.69509477539062
4.22334909502519,-0.924161840820312,9.82580361328125,-1.66157595214844
4.22542854858422,-0.933738647460937,9.78270798339844,-1.69030637207031
4.22730783254689,-0.948103857421875,9.79707319335937,-1.69988317871094
4.22918711650957,-0.9576806640625,9.78749638671875,-1.69988317871094
4.23106640047224,-0.962469067382812,9.79228479003906,-1.7238251953125
4.23301532728431,-0.948103857421875,9.81143840332031,-1.68072956542969
4.23496425409637,-0.981622680664062,9.80186159667969,-1.68551796875
4.23691318090844,-0.97683427734375,9.83059201660156,-1.68072956542969
4.23895053578041,-0.986411083984375,9.79707319335937,-1.762132421875
4.24098789065237,-0.981622680664062,9.78749638671875,-1.67594116210937
4.24302524552433,-0.933738647460937,9.81622680664062,-1.67115275878906
4.24506533015975,-0.943315454101562,9.80186159667969,-1.66157595214844
4.24710541479517,-0.962469067382812,9.80665,-1.67594116210937
4.24914549943059,-0.914585034179687,9.78270798339844,-1.69030637207031
4.2511876574167,-0.9576806640625,9.77791958007812,-1.65678754882812
4.25322981540281,-0.97683427734375,9.77313117675781,-1.67115275878906
4.25527197338893,-0.909796630859375,9.75876596679687,-1.63284553222656
4.25731570450871,-0.948103857421875,9.82580361328125,-1.66636435546875
4.2593594356285,-0.93852705078125,9.78270798339844,-1.6472107421875
4.26140316674829,-0.93852705078125,9.77791958007812,-1.58974990234375
4.26344866989499,-0.909796630859375,9.77313117675781,-1.61369191894531
4.2654941730417,-0.890643017578125,9.77791958007812,-1.61848032226562
4.2675396761884,-0.914585034179687,9.7683427734375,-1.61369191894531
4.26958743942625,-0.90021982421875,9.73961235351562,-1.61369191894531
4.2716352026641,-0.876277807617187,9.74440075683594,-1.608903515625
4.27368296590195,-0.876277807617187,9.73961235351562,-1.58974990234375
4.27572756612291,-0.914585034179687,9.7683427734375,-1.58974990234375
4.27777216634387,-0.9193734375,9.77313117675781,-1.59932670898438
4.27981676656483,-0.905008227539062,9.74440075683594,-1.60411511230469
4.28392741286671,-0.890643017578125,9.77791958007812,-1.62326872558594
4.2880380591686,-0.905008227539062,9.78270798339844,-1.61369191894531
4.29214870547048,-0.90021982421875,9.75876596679687,-1.65199914550781
4.29420045180098,-0.890643017578125,9.77313117675781,-1.56101948242187
4.29625219813147,-0.928950244140625,9.7683427734375,-1.55144267578125
4.29830394446196,-0.9193734375,9.77791958007812,-1.59932670898438
4.30034865099013,-0.909796630859375,9.75397756347656,-1.55623107910156
4.3023933575183,-0.909796630859375,9.75876596679687,-1.58974990234375
4.30443806404648,-0.905008227539062,9.76355437011719,-1.608903515625
4.30647727943276,-0.9193734375,9.78270798339844,-1.59453830566406
4.30851649481905,-0.909796630859375,9.7683427734375,-1.58496149902344
4.31055571020533,-0.93852705078125,9.75876596679687,-1.56580788574219
4.31259362969318,-0.93852705078125,9.75397756347656,-1.58974990234375
4.31463154918103,-0.905008227539062,9.74440075683594,-1.59932670898438
4.31666946866887,-0.928950244140625,9.75876596679687,-1.59932670898438
4.3187679315595,-0.914585034179687,9.71567033691406,-1.55144267578125
4.32086639445012,-0.905008227539062,9.75397756347656,-1.56101948242187
4.32296485734075,-0.933738647460937,9.76355437011719,-1.60411511230469
4.32506576706297,-0.928950244140625,9.74440075683594,-1.61369191894531
4.32716667678519,-0.928950244140625,9.78749638671875,-1.59453830566406
4.32926758650741,-0.895431420898437,9.76355437011719,-1.51792385253906
4.33136876033553,-0.952892260742187,9.76355437011719,-1.59453830566406
4.33346993416366,-0.93852705078125,9.76355437011719,-1.66636435546875
4.33557110799178,-0.928950244140625,9.75397756347656,-1.68072956542969
4.33761210777477,-0.967257470703125,9.75397756347656,-1.5705962890625
4.33965310755775,-0.972045874023437,9.71567033691406,-1.67115275878906
4.34169410734074,-0.952892260742187,9.74918916015625,-1.63763393554687
4.34373226847355,-0.933738647460937,9.78749638671875,-1.62805712890625
4.34577042960636,-0.972045874023437,9.76355437011719,-1.64242233886719
4.34780859073917,-0.924161840820312,9.77791958007812,-1.69509477539062
4.34991085506209,-0.952892260742187,9.77313117675781,-1.59932670898438
4.35201311938501,-0.952892260742187,9.78270798339844,-1.64242233886719
4.35411538370793,-0.909796630859375,9.79707319335937,-1.64242233886719
4.3562189285213,-0.967257470703125,9.80665,-1.64242233886719
4.35832247333466,-0.97683427734375,9.79228479003906,-1.65199914550781
4.36042601814803,-0.9576806640625,9.80665,-1.61848032226562
4.36252686287459,-0.948103857421875,9.80665,-1.6472107421875
4.36462770760116,-0.9576806640625,9.78270798339844,-1.62805712890625
4.36672855232773,-0.995987890625,9.80665,-1.66157595214844
4.36876798396835,-0.962469067382812,9.80186159667969,-1.61848032226562
4.37080741560897,-0.9576806640625,9.81143840332031,-1.58496149902344
4.37284684724959,-0.972045874023437,9.79228479003906,-1.65199914550781
4.37488615421574,-0.905008227539062,9.81622680664062,-1.66636435546875
4.37692546118188,-0.948103857421875,9.84016882324219,-1.6472107421875
4.37896476814803,-0.914585034179687,9.81143840332031,-1.67594116210937
4.38107248765759,-0.9193734375,9.80665,-1.65678754882812
4.38318020716714,-0.948103857421875,9.79228479003906,-1.68551796875
4.38528792667669,-0.9193734375,9.77791958007812,-1.66157595214844
4.38739829126003,-0.9193734375,9.79228479003906,-1.62805712890625
4.38950865584336,-0.928950244140625,9.79228479003906,-1.68551796875
4.3916190204267,-0.905008227539062,9.81143840332031,-1.60411511230469
4.3937321469458,-0.928950244140625,9.74918916015625,-1.63284553222656
4.3958452734649,-0.895431420898437,9.80186159667969,-1.63763393554687
4.397958399984,-0.890643017578125,9.78270798339844,-1.63763393554687
4.40006923461942,-0.928950244140625,9.80186159667969,-1.68551796875
4.40218006925484,-0.909796630859375,9.77791958007812,-1.60411511230469
4.40429090389025,-0.905008227539062,9.81143840332031,-1.59453830566406
4.40632879397272,-0.857124194335937,9.79228479003906,-1.59932670898438
4.40836668405518,-0.82360537109375,9.79707319335937,-1.6472107421875
4.41040457413764,-0.895431420898437,9.80186159667969,-1.63284553222656
4.41243771693278,-0.924161840820312,9.77313117675781,-1.61369191894531
4.41447085972791,-0.928950244140625,9.79707319335937,-1.62326872558594
4.41650400252305,-0.90021982421875,9.75397756347656,-1.608903515625
4.41853707902044,-0.967257470703125,9.76355437011719,-1.608903515625
4.42057015551784,-0.890643017578125,9.75876596679687,-1.61369191894531
4.42260323201523,-0.885854614257812,9.77791958007812,-1.63284553222656
4.42463626793103,-0.8810662109375,9.74440075683594,-1.61369191894531
4.42666930384682,-0.93852705078125,9.77791958007812,-1.57538469238281
4.42870233976262,-0.93852705078125,9.80186159667969,-1.57538469238281
4.43073514553519,-0.890643017578125,9.78749638671875,-1.608903515625
4.43276795130775,-0.885854614257812,9.75397756347656,-1.63763393554687
4.43480075708032,-0.928950244140625,9.75876596679687,-1.61848032226562
4.43683350317407,-0.876277807617187,9.77791958007812,-1.63284553222656
4.43886624926782,-0.905008227539062,9.75397756347656,-1.6472107421875
4.44089899536158,-0.905008227539062,9.76355437011719,-1.64242233886719
4.44298649232338,-0.93852705078125,9.79228479003906,-1.63284553222656
4.44507398928519,-0.933738647460937,9.80665,-1.66636435546875
4.44716148624699,-0.914585034179687,9.77313117675781,-1.59453830566406
4.44919538654267,-0.905008227539062,9.78270798339844,-1.62805712890625
4.45122928683835,-0.93852705078125,9.80186159667969,-1.65199914550781
4.45326318713403,-0.928950244140625,9.79228479003906,-1.6472107421875
4.45522468351261,-0.943315454101562,9.79707319335937,-1.66636435546875
4.45718617989119,-0.905008227539062,9.79228479003906,-1.67115275878906
4.45914767626977,-0.909796630859375,9.79228479003906,-1.65678754882812
4.46109038172767,-0.924161840820312,9.7683427734375,-1.62326872558594
4.46303308718556,-0.924161840820312,9.77791958007812,-1.608903515625
4.46497579264346,-0.948103857421875,9.78270798339844,-1.608903515625
4.46692061545162,-0.9193734375,9.83538041992187,-1.6472107421875
4.46886543825978,-0.943315454101562,9.81622680664062,-1.6472107421875
4.47081026106794,-0.972045874023437,9.79707319335937,-1.63284553222656
4.47281896169728,-0.9576806640625,9.7683427734375,-1.6472107421875
4.47482766232663,-0.928950244140625,9.77313117675781,-1.58974990234375
4.47683636295597,-0.9193734375,9.78749638671875,-1.59453830566406
4.47885123258488,-0.9193734375,9.81143840332031,-1.62326872558594
4.48086610221378,-0.895431420898437,9.80186159667969,-1.55144267578125
4.48288097184269,-0.905008227539062,9.77313117675781,-1.62805712890625
4.48490947694252,-0.943315454101562,9.77791958007812,-1.6472107421875
4.48693798204234,-0.933738647460937,9.74440075683594,-1.62326872558594
4.48896648714217,-0.914585034179687,9.78270798339844,-1.69509477539062
4.49099282684486,-0.914585034179687,9.78749638671875,-1.61369191894531
4.49301916654755,-0.93852705078125,9.77313117675781,-1.57538469238281
4.49504550625023,-0.905008227539062,9.79707319335937,-1.62805712890625
4.49705761871768,-0.924161840820312,9.79228479003906,-1.67594116210937
4.49906973118513,-0.93852705078125,9.75876596679687,-1.66157595214844
4.50108184365258,-0.890643017578125,9.77791958007812,-1.58017309570312
4.50311673756534,-0.895431420898437,9.80665,-1.64242233886719
4.5051516314781,-0.9193734375,9.83538041992187,-1.69988317871094
4.50718652539086,-0.933738647460937,9.77791958007812,-1.63763393554687
4.50921646245683,-0.890643017578125,9.79707319335937,-1.63763393554687
4.5112463995228,-0.914585034179687,9.77791958007812,-1.68072956542969
4.51327633658878,-0.90021982421875,9.79228479003906,-1.68072956542969
4.51530332628062,-0.8810662109375,9.78749638671875,-1.71424838867187
4.51733031597246,-0.890643017578125,9.77313117675781,-1.69030637207031
4.5193573056643,-0.871489404296875,9.77313117675781,-1.64242233886719
4.52137574972897,-0.952892260742187,9.74918916015625,-1.63284553222656
4.52339419379364,-0.948103857421875,9.78270798339844,-1.62326872558594
4.52541263785831,-0.933738647460937,9.7683427734375,-1.61848032226562
4.52742307177758,-0.948103857421875,9.77791958007812,-1.63284553222656
4.52943350569685,-0.90021982421875,9.78749638671875,-1.66636435546875
4.53144393961613,-0.948103857421875,9.7683427734375,-1.54665427246094
4.53349867925371,-0.924161840820312,9.76355437011719,-1.58496149902344
4.5355534188913,-0.905008227539062,9.78749638671875,-1.64242233886719
4.53760815852889,-0.928950244140625,9.75876596679687,-1.62326872558594
4.53964131130666,-0.948103857421875,9.78270798339844,-1.608903515625
4.54167446408444,-0.943315454101562,9.80186159667969,-1.61848032226562
4.54370761686222,-0.93852705078125,9.77313117675781,-1.63284553222656
4.54574055620684,-0.914585034179687,9.78270798339844,-1.59932670898438
4.54777349555145,-0.97683427734375,9.75397756347656,-1.608903515625
4.54980643489607,-0.928950244140625,9.80186159667969,-1.608903515625
4.55180223556882,-0.928950244140625,9.76355437011719,-1.57538469238281
4.55379803624156,-0.914585034179687,9.80186159667969,-1.62326872558594
4.55579383691431,-0.924161840820312,9.74440075683594,-1.61369191894531
4.55775212885224,-0.928950244140625,9.77791958007812,-1.59453830566406
4.55971042079018,-0.905008227539062,9.79707319335937,-1.5322890625
4.56166871272811,-0.914585034179687,9.78749638671875,-1.55144267578125
4.56369289268688,-0.924161840820312,9.77313117675781,-1.608903515625
4.56571707264564,-0.948103857421875,9.78749638671875,-1.55144267578125
4.56774125260441,-0.952892260742187,9.80665,-1.61848032226562
4.56984236599417,-0.93852705078125,9.74440075683594,-1.60411511230469
4.57194347938392,-0.885854614257812,9.77791958007812,-1.61848032226562
4.57404459277368,-0.928950244140625,9.7683427734375,-1.58496149902344
4.57616465261526,-0.90021982421875,9.7683427734375,-1.60411511230469
4.57828471245684,-0.952892260742187,9.76355437011719,-1.55623107910156
4.58040477229842,-0.905008227539062,9.77313117675781,-1.56101948242187
4.58252725048852,-0.9193734375,9.79707319335937,-1.5705962890625
4.58464972867863,-0.943315454101562,9.74440075683594,-1.59453830566406
4.58677220686873,-0.924161840820312,9.77313117675781,-1.58974990234375
4.5888810125328,-0.909796630859375,9.730035546875,-1.5705962890625
4.59098981819686,-0.933738647460937,9.74918916015625,-1.58974990234375
4.59309862386093,-0.9576806640625,9.73961235351562,-1.65199914550781
4.59516268570989,-0.890643017578125,9.77313117675781,-1.61848032226562
4.59722674755885,-0.948103857421875,9.74918916015625,-1.61369191894531
4.5992908094078,-0.9576806640625,9.75397756347656,-1.61848032226562
4.60135196478975,-0.928950244140625,9.7683427734375,-1.61848032226562
4.60341312017169,-0.928950244140625,9.78270798339844,-1.58496149902344
4.60547427555363,-0.924161840820312,9.79707319335937,-1.63763393554687
4.60753474180797,-0.943315454101562,9.7683427734375,-1.60411511230469
4.60959520806231,-0.952892260742187,9.82101520996094,-1.63763393554687
4.61165567431665,-0.9193734375,9.80186159667969,-1.68072956542969
4.61582591064478,-0.90021982421875,9.82580361328125,-1.58496149902344
4.61999614697291,-0.8810662109375,9.82101520996094,-1.60411511230469
4.62416638330104,-0.890643017578125,9.80186159667969,-1.58974990234375
4.62627711637396,-0.90021982421875,9.81143840332031,-1.54665427246094
4.62838784944688,-0.90021982421875,9.82580361328125,-1.59932670898438
4.6304985825198,-0.905008227539062,9.79228479003906,-1.60411511230469
4.63261241607015,-0.890643017578125,9.79228479003906,-1.55144267578125
4.6347262496205,-0.871489404296875,9.83538041992187,-1.56101948242187
4.63684008317085,-0.8810662109375,9.81622680664062,-1.59453830566406
4.63895617268908,-0.86191259765625,9.80665,-1.54665427246094
4.64107226220731,-0.890643017578125,9.77791958007812,-1.50355864257812
4.64318835172553,-0.885854614257812,9.78749638671875,-1.5705962890625
4.64530604052762,-0.90021982421875,9.77313117675781,-1.50355864257812
4.6474237293297,-0.8810662109375,9.78749638671875,-1.56580788574219
4.64954141813178,-0.8810662109375,9.82580361328125,-1.5322890625
4.65165640055366,-0.90021982421875,9.79228479003906,-1.55144267578125
4.65377138297554,-0.909796630859375,9.82101520996094,-1.57538469238281
4.65588636539741,-0.9576806640625,9.78270798339844,-1.62326872558594
4.65795388047988,-0.952892260742187,9.78749638671875,-1.6472107421875
4.66002139556234,-0.924161840820312,9.80186159667969,-1.61369191894531
4.6620889106448,-0.9576806640625,9.75876596679687,-1.63763393554687
4.66415589089654,-0.928950244140625,9.80186159667969,-1.64242233886719
4.66622287114828,-0.93852705078125,9.78749638671875,-1.61369191894531
4.66828985140001,-0.895431420898437,9.86889924316406,-1.62805712890625
4.67248375515435,-0.928950244140625,9.80186159667969,-1.63763393554687
4.6766776589087,-0.93852705078125,9.80186159667969,-1.6472107421875
4.68087156266304,-0.9193734375,9.82580361328125,-1.62326872558594
4.68298181873943,-0.9193734375,9.8449572265625,-1.66157595214844
4.68509207481582,-0.933738647460937,9.79228479003906,-1.69988317871094
4.68720233089221,-0.90021982421875,9.7683427734375,-1.61848032226562
4.68924631233752,-0.909796630859375,9.73482395019531,-1.59453830566406
4.69129029378283,-0.924161840820312,9.75397756347656,-1.65199914550781
4.69333427522814,-0.8810662109375,9.7683427734375,-1.59932670898438
4.69537447574897,-0.890643017578125,9.78270798339844,-1.62326872558594
4.69741467626981,-0.952892260742187,9.71088193359375,-1.61369191894531
4.69945487679064,-0.90021982421875,9.730035546875,-1.65199914550781
4.7014921776804,-0.914585034179687,9.730035546875,-1.62326872558594
4.70352947857016,-0.885854614257812,9.78749638671875,-1.65199914550781
4.70556677945991,-0.905008227539062,9.730035546875,-1.61848032226562
4.70773918527588,-0.8810662109375,9.75876596679687,-1.63763393554687
4.70991159109185,-0.905008227539062,9.76355437011719,-1.58496149902344
4.71208399690782,-0.928950244140625,9.74918916015625,-1.61369191894531
4.71425615955973,-0.909796630859375,9.74918916015625,-1.54186586914062
4.71642832221165,-0.905008227539062,9.730035546875,-1.61369191894531
4.71860048486356,-0.895431420898437,9.75876596679687,-1.61848032226562
4.72070695296252,-0.905008227539062,9.7683427734375,-1.63763393554687
4.72281342106148,-0.928950244140625,9.75397756347656,-1.53707746582031
4.72491988916045,-0.914585034179687,9.74918916015625,-1.63763393554687
4.72702537169083,-0.909796630859375,9.80186159667969,-1.65199914550781
4.72913085422121,-0.943315454101562,9.75876596679687,-1.59453830566406
4.73123633675159,-0.928950244140625,9.79707319335937,-1.58017309570312
4.73334085867,-0.866701000976562,9.77313117675781,-1.58496149902344
4.7354453805884,-0.895431420898437,9.77791958007812,-1.55144267578125
4.7375499025068,-0.895431420898437,9.78749638671875,-1.58496149902344
4.73965486138267,-0.905008227539062,9.78270798339844,-1.65678754882812
4.74175982025854,-0.890643017578125,9.74918916015625,-1.56101948242187
4.74386477913441,-0.8810662109375,9.82101520996094,-1.58974990234375
4.74590138373511,-0.876277807617187,9.78749638671875,-1.52271225585937
4.7479379883358,-0.909796630859375,9.82580361328125,-1.58017309570312
4.7499745929365,-0.8810662109375,9.79228479003906,-1.5322890625
4.75514996422014,-0.9193734375,9.77791958007812,-1.56580788574219
4.76032533550377,-0.9193734375,9.80665,-1.57538469238281
4.76550070678741,-0.909796630859375,9.80186159667969,-1.58496149902344
4.76758558450009,-0.909796630859375,9.80665,-1.608903515625
4.76967046221277,-0.933738647460937,9.79228479003906,-1.5705962890625
4.77175533992544,-0.890643017578125,9.81622680664062,-1.59453830566406
4.77383871242978,-0.871489404296875,9.81143840332031,-1.52750065917969
4.77592208493413,-0.914585034179687,9.79228479003906,-1.57538469238281
4.77800545743847,-0.909796630859375,9.79228479003906,-1.56580788574219
4.78006764108647,-0.933738647460937,9.82101520996094,-1.5705962890625
4.78212982473448,-0.8810662109375,9.77791958007812,-1.58496149902344
4.78419200838248,-0.895431420898437,9.79707319335937,-1.57538469238281
4.78623316311339,-0.924161840820312,9.81622680664062,-1.58496149902344
4.78827431784429,-0.905008227539062,9.79707319335937,-1.56101948242187
4.79031547257519,-0.93852705078125,9.7683427734375,-1.56101948242187
4.79242124275748,-0.90021982421875,9.79228479003906,-1.58974990234375
4.79452701293977,-0.909796630859375,9.80186159667969,-1.55144267578125
4.79663278312206,-0.909796630859375,9.79228479003906,-1.55144267578125
4.79874057912901,-0.914585034179687,9.76355437011719,-1.52750065917969
4.80084837513595,-0.928950244140625,9.79228479003906,-1.56101948242187
4.8029561711429,-0.890643017578125,9.79707319335937,-1.52271225585937
4.80503406372102,-0.8810662109375,9.79228479003906,-1.59453830566406
4.80711195629914,-0.890643017578125,9.82580361328125,-1.61848032226562
4.80918984887727,-0.857124194335937,9.81143840332031,-1.56580788574219
4.81123603209124,-0.90021982421875,9.73482395019531,-1.61848032226562
4.81328221530522,-0.876277807617187,9.73961235351562,-1.60411511230469
4.81532839851919,-0.890643017578125,9.81622680664062,-1.55623107910156
4.81737572865157,-0.90021982421875,9.78270798339844,-1.55144267578125
4.81942305878395,-0.837970581054687,9.7683427734375,-1.56580788574219
4.82147038891633,-0.847547387695312,9.77791958007812,-1.58017309570312
4.82357604223665,-0.876277807617187,9.74440075683594,-1.55144267578125
4.82568169555696,-0.852335791015625,9.79707319335937,-1.5705962890625
4.82778734887727,-0.8810662109375,9.7683427734375,-1.60411511230469
4.82989422007953,-0.8810662109375,9.76355437011719,-1.58017309570312
4.83200109128179,-0.905008227539062,9.81143840332031,-1.63763393554687
4.83410796248405,-0.885854614257812,9.77791958007812,-1.56101948242187
4.8361807906633,-0.905008227539062,9.74918916015625,-1.55144267578125
4.83825361884255,-0.86191259765625,9.81622680664062,-1.58974990234375
4.84032644702181,-0.90021982421875,9.82101520996094,-1.5705962890625
4.84236340530089,-0.90021982421875,9.74440075683594,-1.61848032226562
4.84440036357997,-0.943315454101562,9.81143840332031,-1.64242233886719
4.84643732185905,-0.90021982421875,9.75876596679687,-1.61848032226562
4.84847089255132,-0.890643017578125,9.79228479003906,-1.66636435546875
4.8505044632436,-0.905008227539062,9.75876596679687,-1.55623107910156
4.85253803393587,-0.90021982421875,9.77791958007812,-1.61848032226562
4.85471347262945,-0.9193734375,9.80665,-1.608903515625
4.85688891132303,-0.871489404296875,9.79228479003906,-1.53707746582031
4.8590643500166,-0.943315454101562,9.77313117675781,-1.59453830566406
4.86125645993414,-0.895431420898437,9.76355437011719,-1.60411511230469
4.86344856985167,-0.933738647460937,9.78270798339844,-1.64242233886719
4.86564067976921,-0.928950244140625,9.76355437011719,-1.52750065917969
4.86780471834342,-0.928950244140625,9.81622680664062,-1.59932670898438
4.86996875691764,-0.890643017578125,9.80186159667969,-1.64242233886719
4.87213279549186,-0.924161840820312,9.79707319335937,-1.62805712890625
4.87426783173318,-0.933738647460937,9.7683427734375,-1.62805712890625
4.8764028679745,-0.928950244140625,9.77791958007812,-1.58017309570312
4.87853790421582,-0.933738647460937,9.81622680664062,-1.61369191894531
4.88067340557216,-0.93852705078125,9.81622680664062,-1.5705962890625
4.8828089069285,-0.948103857421875,9.78749638671875,-1.58974990234375
4.88494440828484,-0.943315454101562,9.83059201660156,-1.60411511230469
4.8870825068634,-0.948103857421875,9.79707319335937,-1.62805712890625
4.88922060544196,-0.967257470703125,9.7683427734375,-1.5705962890625
4.89135870402052,-0.905008227539062,9.80186159667969,-1.59932670898438
4.89349855010342,-0.885854614257812,9.79228479003906,-1.59932670898438
4.89563839618632,-0.928950244140625,9.78270798339844,-1.62805712890625
4.89777824226922,-0.909796630859375,9.79228479003906,-1.54186586914062
4.90305030457933,-0.871489404296875,9.83538041992187,-1.59453830566406
4.90832236688944,-0.909796630859375,9.84016882324219,-1.61369191894531
4.91359442919955,-0.928950244140625,9.82580361328125,-1.65199914550781
4.91570002566222,-0.895431420898437,9.82580361328125,-1.61369191894531
4.91780562212489,-0.8810662109375,9.79707319335937,-1.61848032226562
4.91991121858756,-0.914585034179687,9.79707319335937,-1.61848032226562
4.92201930495909,-0.885854614257812,9.78749638671875,-1.65199914550781
4.92412739133061,-0.914585034179687,9.77313117675781,-1.58017309570312
4.92623547770214,-0.924161840820312,9.78270798339844,-1.65199914550781
4.92836122498947,-0.909796630859375,9.78270798339844,-1.608903515625
4.9304869722768,-0.876277807617187,9.75876596679687,-1.57538469238281
4.93261271956412,-0.871489404296875,9.76355437011719,-1.58496149902344
4.93467998725075,-0.876277807617187,9.79707319335937,-1.56101948242187
4.93674725493739,-0.933738647460937,9.77791958007812,-1.59453830566406
4.93881452262402,-0.852335791015625,9.79228479003906,-1.608903515625
4.94092172564051,-0.857124194335937,9.79707319335937,-1.62326872558594
4.943028928657,-0.928950244140625,9.79228479003906,-1.61369191894531
4.9451361316735,-0.895431420898437,9.7683427734375,-1.61848032226562
4.94724249495475,-0.924161840820312,9.7683427734375,-1.57538469238281
4.949348858236,-0.885854614257812,9.79707319335937,-1.59453830566406
4.95145522151725,-0.943315454101562,9.76355437011719,-1.55623107910156
4.95356143603548,-0.933738647460937,9.77791958007812,-1.59453830566406
4.95566765055371,-0.948103857421875,9.79228479003906,-1.608903515625
4.95777386507195,-0.905008227539062,9.7683427734375,-1.59453830566406
4.95987702403462,-0.914585034179687,9.81143840332031,-1.60411511230469
4.96198018299729,-0.914585034179687,9.78270798339844,-1.62326872558594
4.96408334195997,-0.928950244140625,9.79228479003906,-1.65199914550781
4.96612432188618,-0.90021982421875,9.81143840332031,-1.6472107421875
4.9681653018124,-0.9193734375,9.75397756347656,-1.63763393554687
4.97020628173862,-0.9193734375,9.80186159667969,-1.56101948242187
4.97231143212924,-0.924161840820312,9.80186159667969,-1.54665427246094
4.97441658251987,-0.86191259765625,9.75397756347656,-1.62326872558594
4.9765217329105,-0.885854614257812,9.80186159667969,-1.56101948242187
4.97870396934713,-0.948103857421875,9.76355437011719,-1.58017309570312
4.98088620578376,-0.895431420898437,9.80665,-1.58017309570312
4.98306844222039,-0.928950244140625,9.77313117675781,-1.59453830566406
4.98525964719001,-0.866701000976562,9.78749638671875,-1.54665427246094
4.98745085215963,-0.890643017578125,9.79707319335937,-1.54665427246094
4.98964205712925,-0.905008227539062,9.75397756347656,-1.53707746582031
4.99183329606154,-0.895431420898437,9.77313117675781,-1.58017309570312
4.99402453499383,-0.90021982421875,9.79707319335937,-1.57538469238281
4.99621577392613,-0.9193734375,9.77313117675781,-1.57538469238281
4.99834068679505,-0.933738647460937,9.77791958007812,-1.56580788574219
5.00046559966397,-0.885854614257812,9.78749638671875,-1.58496149902344
5.00259051253289,-0.890643017578125,9.81143840332031,-1.59453830566406
5.00471453738099,-0.952892260742187,9.77791958007812,-1.608903515625
5.00683856222908,-0.866701000976562,9.75876596679687,-1.5705962890625
5.00896258707717,-0.890643017578125,9.77313117675781,-1.62805712890625
5.0110863110355,-0.914585034179687,9.80186159667969,-1.57538469238281
5.01321003499384,-0.909796630859375,9.77791958007812,-1.58974990234375
5.01533375895217,-0.885854614257812,9.78749638671875,-1.58496149902344
5.0207010110138,-0.890643017578125,9.80186159667969,-1.63763393554687
5.02606826307543,-0.895431420898437,9.77313117675781,-1.57538469238281
5.03143551513706,-0.9193734375,9.78270798339844,-1.59453830566406
5.03349812304721,-0.895431420898437,9.80665,-1.61369191894531
5.03556073095737,-0.928950244140625,9.7683427734375,-1.62805712890625
5.03762333886753,-0.895431420898437,9.730035546875,-1.60411511230469
5.03971448274774,-0.895431420898437,9.80186159667969,-1.59453830566406
5.04180562662794,-0.90021982421875,9.78749638671875,-1.56101948242187
5.04389677050814,-0.914585034179687,9.81143840332031,-1.59453830566406
5.0459861495229,-0.885854614257812,9.79228479003906,-1.58017309570312
5.04807552853766,-0.895431420898437,9.78270798339844,-1.54186586914062
5.05016490755241,-0.933738647460937,9.81622680664062,-1.58974990234375
5.05225290679286,-0.948103857421875,9.76355437011719,-1.59453830566406
5.05434090603332,-0.933738647460937,9.80665,-1.55623107910156
5.05642890527377,-0.9193734375,9.80186159667969,-1.56101948242187
5.05851569753723,-0.952892260742187,9.81143840332031,-1.58017309570312
5.06060248980068,-0.933738647460937,9.80665,-1.5322890625
5.06268928206414,-0.93852705078125,9.79228479003906,-1.53707746582031
5.06477412901509,-0.905008227539062,9.82101520996094,-1.59453830566406
5.06685897596604,-0.9576806640625,9.81622680664062,-1.63284553222656
5.068943822917,-0.948103857421875,9.81143840332031,-1.56101948242187
5.07102614181891,-0.924161840820312,9.75876596679687,-1.58974990234375
5.07310846072082,-0.9193734375,9.80665,-1.63284553222656
5.07519077962273,-0.909796630859375,9.79707319335937,-1.59453830566406
5.07726785613821,-0.895431420898437,9.76355437011719,-1.59932670898438
5.07934493265369,-0.948103857421875,9.75397756347656,-1.54186586914062
5.08142200916917,-0.948103857421875,9.75397756347656,-1.58017309570312
5.08457746629085,-0.924161840820312,9.77791958007812,-1.61848032226562
5.08773292341252,-0.924161840820312,9.77313117675781,-1.5705962890625
5.0908883805342,-0.885854614257812,9.77313117675781,-1.54186586914062
5.09299795638055,-0.924161840820312,9.74918916015625,-1.67115275878906
5.0951075322269,-0.895431420898437,9.81143840332031,-1.58496149902344
5.09721710807325,-0.93852705078125,9.82101520996094,-1.55623107910156
5.09932538997429,-0.924161840820312,9.77791958007812,-1.53707746582031
5.10143367187533,-0.876277807617187,9.75876596679687,-1.58017309570312
5.10354195377637,-0.914585034179687,9.76355437011719,-1.5705962890625
5.10564978190137,-0.871489404296875,9.75397756347656,-1.55623107910156
5.10775761002637,-0.9193734375,9.75876596679687,-1.60411511230469
5.10986543815137,-0.9193734375,9.79228479003906,-1.59932670898438
5.11196980078158,-0.9193734375,9.75876596679687,-1.58496149902344
5.11407416341179,-0.909796630859375,9.79228479003906,-1.61369191894531
5.11617852604199,-0.9193734375,9.80665,-1.57538469238281
5.11837986556022,-0.9193734375,9.77313117675781,-1.58496149902344
5.12058120507845,-0.890643017578125,9.81622680664062,-1.54186586914062
5.12278254459667,-0.909796630859375,9.8449572265625,-1.61369191894531
5.12498642664963,-0.8810662109375,9.77791958007812,-1.63763393554687
5.12719030870258,-0.866701000976562,9.82101520996094,-1.59932670898438
5.12939419075553,-0.905008227539062,9.78270798339844,-1.59932670898438
5.13160164279546,-0.933738647460937,9.79228479003906,-1.58974990234375
5.13380909483539,-0.90021982421875,9.81143840332031,-1.55623107910156
5.13601654687533,-0.9193734375,9.82580361328125,-1.54186586914062
5.13822578624164,-0.866701000976562,9.79707319335937,-1.59453830566406
5.14043502560796,-0.890643017578125,9.80665,-1.59932670898438
5.14264426497428,-0.890643017578125,9.85453403320312,-1.5705962890625
5.14485511621126,-0.905008227539062,9.78270798339844,-1.63763393554687
5.14706596744824,-0.933738647460937,9.81622680664062,-1.60411511230469
5.14927681868522,-0.895431420898437,9.83059201660156,-1.50355864257812
5.15142386892394,-0.871489404296875,9.77313117675781,-1.55623107910156
5.15357091916265,-0.895431420898437,9.79228479003906,-1.58017309570312
5.15571796940137,-0.890643017578125,9.79228479003906,-1.57538469238281
5.16237989355502,-0.905008227539062,9.79228479003906,-1.54665427246094
5.16904181770867,-0.895431420898437,9.79707319335937,-1.51792385253906
5.17570374186232,-0.924161840820312,9.81143840332031,-1.5322890625
5.17796295160624,-0.924161840820312,9.7683427734375,-1.56580788574219
5.18022216135016,-0.90021982421875,9.79707319335937,-1.49877023925781
5.18248137109408,-0.9193734375,9.79707319335937,-1.56580788574219
5.18467211740484,-0.928950244140625,9.84016882324219,-1.5705962890625
5.1868628637156,-0.928950244140625,9.78749638671875,-1.49877023925781
5.18905361002636,-0.90021982421875,9.80665,-1.58496149902344
5.19124170019563,-0.905008227539062,9.79228479003906,-1.5322890625
5.1934297903649,-0.890643017578125,9.79707319335937,-1.55144267578125
5.19561788053417,-0.914585034179687,9.80186159667969,-1.54665427246094
5.19780334255674,-0.93852705078125,9.79228479003906,-1.59932670898438
5.19998880457931,-0.924161840820312,9.78270798339844,-1.5705962890625
5.20217426660187,-0.933738647460937,9.84016882324219,-1.608903515625
5.2042950358076,-0.909796630859375,9.78749638671875,-1.56580788574219
5.20641580501333,-0.905008227539062,9.75397756347656,-1.53707746582031
5.20853657421905,-0.9193734375,9.78270798339844,-1.55623107910156
5.21499367545603,-0.93852705078125,9.79707319335937,-1.5322890625
5.22145077669301,-0.895431420898437,9.81622680664062,-1.5322890625
5.22790787792999,-0.90021982421875,9.78270798339844,-1.56580788574219
5.23008100575117,-0.9193734375,9.7683427734375,-1.55623107910156
5.23225413357235,-0.948103857421875,9.7683427734375,-1.50834704589844
5.23442726139353,-0.924161840820312,9.80665,-1.57538469238281
5.23660070757409,-0.890643017578125,9.80186159667969,-1.57538469238281
5.23877415375465,-0.895431420898437,9.80186159667969,-1.59932670898438
5.24094759993521,-0.90021982421875,9.74918916015625,-1.59932670898438
5.24312111892392,-0.924161840820312,9.80665,-1.57538469238281
5.24529463791264,-0.895431420898437,9.80186159667969,-1.63284553222656
5.24746815690135,-0.895431420898437,9.82101520996094,-1.63763393554687
5.24958738378937,-0.933738647460937,9.75397756347656,-1.61848032226562
5.25170661067739,-0.90021982421875,9.75397756347656,-1.59932670898438
5.25382583756542,-0.890643017578125,9.79707319335937,-1.56101948242187
5.25601425824684,-0.90021982421875,9.77791958007812,-1.52271225585937
5.25820267892827,-0.924161840820312,9.77313117675781,-1.60411511230469
5.26039109960969,-0.933738647460937,9.80665,-1.5322890625
5.26258146365049,-0.895431420898437,9.78270798339844,-1.59453830566406
5.26477182769129,-0.9193734375,9.79228479003906,-1.5705962890625
5.26696219173209,-0.914585034179687,9.79707319335937,-1.61369191894531
5.26915431477897,-0.93852705078125,9.77791958007812,-1.63763393554687
5.27134643782585,-0.895431420898437,9.79228479003906,-1.63284553222656
5.27353856087272,-0.90021982421875,9.77313117675781,-1.61848032226562
5.27572883572081,-0.928950244140625,9.75876596679687,-1.60411511230469
5.2779191105689,-0.933738647460937,9.82101520996094,-1.61369191894531
5.28010938541699,-0.933738647460937,9.80186159667969,-1.56580788574219
5.2822379511722,-0.924161840820312,9.84016882324219,-1.5705962890625
5.28436651692741,-0.885854614257812,9.81143840332031,-1.54186586914062
5.28649508268262,-0.914585034179687,9.82580361328125,-1.58496149902344
5.28868566753505,-0.895431420898437,9.83059201660156,-1.59932670898438
5.29087625238748,-0.909796630859375,9.82580361328125,-1.52750065917969
5.29306683723991,-0.895431420898437,9.83059201660156,-1.5705962890625
5.29524455045605,-0.9193734375,9.82580361328125,-1.51792385253906
5.2974222636722,-0.905008227539062,9.82101520996094,-1.50834704589844
5.29959997688835,-0.909796630859375,9.80665,-1.55144267578125
5.30177696549512,-0.866701000976562,9.83538041992187,-1.50834704589844
5.30395395410189,-0.871489404296875,9.81143840332031,-1.54186586914062
5.30613094270866,-0.890643017578125,9.7683427734375,-1.51792385253906
5.3083068651262,-0.905008227539062,9.80186159667969,-1.56101948242187
5.31048278754373,-0.852335791015625,9.79228479003906,-1.52750065917969
5.31265870996127,-0.890643017578125,9.77313117675781,-1.52750065917969
5.3147972386071,-0.8810662109375,9.81143840332031,-1.50834704589844
5.31693576725293,-0.871489404296875,9.83059201660156,-1.51792385253906
5.31907429589876,-0.895431420898437,9.82580361328125,-1.56101948242187
5.3212601622182,-0.876277807617187,9.82101520996094,-1.5322890625
5.32344602853765,-0.9193734375,9.80186159667969,-1.49877023925781
5.3256318948571,-0.933738647460937,9.7683427734375,-1.52271225585937
5.32783460069477,-0.895431420898437,9.81143840332031,-1.44130939941406
5.33003730653245,-0.890643017578125,9.79228479003906,-1.50355864257812
5.33224001237012,-0.924161840820312,9.80665,-1.51792385253906
5.33444506423644,-0.928950244140625,9.77313117675781,-1.56101948242187
5.33665011610276,-0.924161840820312,9.80186159667969,-1.57538469238281
5.33885516796909,-0.905008227539062,9.77313117675781,-1.52750065917969
5.34106136425815,-0.924161840820312,9.79707319335937,-1.58974990234375
5.34326756054721,-0.928950244140625,9.79228479003906,-1.58496149902344
5.34547375683627,-0.928950244140625,9.83059201660156,-1.63284553222656
5.347614713542,-0.952892260742187,9.82101520996094,-1.608903515625
5.34975567024773,-0.952892260742187,9.83059201660156,-1.56580788574219
5.35189662695346,-0.943315454101562,9.80665,-1.59932670898438
5.35408204275207,-0.924161840820312,9.81622680664062,-1.58496149902344
5.35626745855069,-0.90021982421875,9.78749638671875,-1.59932670898438
5.3584528743493,-0.924161840820312,9.82580361328125,-1.58496149902344
5.36064181911926,-0.90021982421875,9.75876596679687,-1.58496149902344
5.36283076388923,-0.948103857421875,9.78749638671875,-1.5322890625
5.36501970865919,-0.914585034179687,9.82580361328125,-1.62805712890625
5.36721087489183,-0.890643017578125,9.80186159667969,-1.58496149902344
5.36940204112447,-0.924161840820312,9.82101520996094,-1.55144267578125
5.37159320735711,-0.933738647460937,9.79707319335937,-1.62326872558594
5.37379889453159,-0.909796630859375,9.75397756347656,-1.59453830566406
5.37600458170607,-0.914585034179687,9.82101520996094,-1.61369191894531
5.37821026888055,-0.885854614257812,9.77791958007812,-1.61848032226562
5.38035176226163,-0.8810662109375,9.79228479003906,-1.58496149902344
5.38249325564271,-0.852335791015625,9.7683427734375,-1.58974990234375
5.38463474902379,-0.914585034179687,9.74440075683594,-1.58017309570312
5.38682132454462,-0.876277807617187,9.74918916015625,-1.52750065917969
5.38900790006546,-0.905008227539062,9.80186159667969,-1.59453830566406
5.39119447558629,-0.9193734375,9.75397756347656,-1.608903515625
5.39336462771303,-0.905008227539062,9.79228479003906,-1.61848032226562
5.39553477983976,-0.914585034179687,9.76355437011719,-1.58496149902344
5.3977049319665,-0.871489404296875,9.75397756347656,-1.5705962890625
5.39987289225296,-0.90021982421875,9.81143840332031,-1.53707746582031
5.40204085253941,-0.905008227539062,9.77791958007812,-1.56101948242187
5.40420881282587,-0.890643017578125,9.76355437011719,-1.55623107910156
5.40637531098125,-0.90021982421875,9.7683427734375,-1.55623107910156
5.40854180913663,-0.8810662109375,9.74918916015625,-1.49877023925781
5.41070830729201,-0.852335791015625,9.73961235351562,-1.58017309570312
5.41287243294306,-0.8810662109375,9.77313117675781,-1.59453830566406
5.4150365585941,-0.876277807617187,9.78270798339844,-1.53707746582031
5.41720068424515,-0.8810662109375,9.84016882324219,-1.55144267578125
5.41936212131112,-0.924161840820312,9.82580361328125,-1.60411511230469
5.42152355837709,-0.90021982421875,9.77791958007812,-1.608903515625
5.42368499544307,-0.9193734375,9.77791958007812,-1.58496149902344
5.43023813183629,-0.885854614257812,9.80665,-1.53707746582031
5.43679126822952,-0.876277807617187,9.82101520996094,-1.51792385253906
5.44334440462274,-0.909796630859375,9.80186159667969,-1.56580788574219
5.44546244108107,-0.914585034179687,9.81622680664062,-1.54665427246094
5.44758047753941,-0.8810662109375,9.80186159667969,-1.58974990234375
5.44969851399774,-0.828393774414062,9.78749638671875,-1.5705962890625
5.45181383886753,-0.876277807617187,9.80665,-1.608903515625
5.45392916373732,-0.905008227539062,9.80186159667969,-1.56580788574219
5.45604448860711,-0.885854614257812,9.82101520996094,-1.56101948242187
5.4581563024092,-0.866701000976562,9.82101520996094,-1.52271225585937
5.46026811621128,-0.8810662109375,9.77313117675781,-1.56580788574219
5.46237993001336,-0.876277807617187,9.79707319335937,-1.50355864257812
5.4644898665368,-0.909796630859375,9.78749638671875,-1.53707746582031
5.46659980306024,-0.90021982421875,9.78749638671875,-1.52750065917969
5.46870973958368,-0.890643017578125,9.81143840332031,-1.49877023925781
5.47087708018698,-0.895431420898437,9.77791958007812,-1.55623107910156
5.47304442079028,-0.852335791015625,9.81143840332031,-1.54186586914062
5.47521176139357,-0.8810662109375,9.79707319335937,-1.50834704589844
5.47736523394132,-0.876277807617187,9.7683427734375,-1.50834704589844
5.47951870648906,-0.885854614257812,9.80665,-1.5322890625
5.4816721790368,-0.924161840820312,9.83538041992187,-1.55623107910156
5.48382904144999,-0.876277807617187,9.80186159667969,-1.48919343261719
5.48598590386318,-0.905008227539062,9.78749638671875,-1.62805712890625
5.48814276627638,-0.885854614257812,9.81143840332031,-1.5705962890625
5.49027991189269,-0.90021982421875,9.82580361328125,-1.54665427246094
5.49241705750901,-0.876277807617187,9.80186159667969,-1.58974990234375
5.49455420312533,-0.871489404296875,9.80665,-1.61369191894531
5.49673649207933,-0.885854614257812,9.79707319335937,-1.53707746582031
5.49891878103332,-0.93852705078125,9.77791958007812,-1.55144267578125
5.50110106998731,-0.905008227539062,9.81143840332031,-1.51792385253906
5.50328147200555,-0.93852705078125,9.82101520996094,-1.55623107910156
5.50546187402378,-0.914585034179687,9.79707319335937,-1.55623107910156
5.50764227604201,-0.895431420898437,9.80186159667969,-1.53707746582031
5.50982234711405,-0.9193734375,9.79707319335937,-1.52750065917969
5.5120024181861,-0.914585034179687,9.80186159667969,-1.54665427246094
5.51418248925815,-0.924161840820312,9.81143840332031,-1.55623107910156
5.5163626573354,-0.905008227539062,9.81622680664062,-1.5705962890625
5.51854282541266,-0.943315454101562,9.82580361328125,-1.59932670898438
5.52072299348991,-0.909796630859375,9.78270798339844,-1.5322890625
5.52290348372429,-0.933738647460937,9.78749638671875,-1.51313544921875
5.52508397395866,-0.93852705078125,9.81622680664062,-1.52271225585937
5.52726446419304,-0.909796630859375,9.78749638671875,-1.54186586914062
5.52930789594217,-0.914585034179687,9.81143840332031,-1.54186586914062
5.53135132769131,-0.8810662109375,9.78749638671875,-1.52271225585937
5.53339475944044,-0.905008227539062,9.81622680664062,-1.55144267578125
5.5355011618927,-0.924161840820312,9.79228479003906,-1.59453830566406
5.53760756434495,-0.895431420898437,9.80665,-1.54665427246094
5.53971396679721,-0.885854614257812,9.76355437011719,-1.58974990234375
5.54182110796474,-0.90021982421875,9.78749638671875,-1.57538469238281
5.54392824913227,-0.93852705078125,9.79228479003906,-1.5322890625
5.54603539029981,-0.890643017578125,9.7683427734375,-1.54665427246094
5.54814047808192,-0.895431420898437,9.79228479003906,-1.53707746582031
5.55024556586404,-0.914585034179687,9.77791958007812,-1.56101948242187
5.55235065364616,-0.866701000976562,9.81622680664062,-1.52271225585937
5.55445343858539,-0.924161840820312,9.78270798339844,-1.52750065917969
5.55655622352463,-0.90021982421875,9.7683427734375,-1.5705962890625
5.55865900846386,-0.876277807617187,9.80186159667969,-1.54665427246094
5.56076095616351,-0.90021982421875,9.80665,-1.49877023925781
5.56286290386317,-0.909796630859375,9.77313117675781,-1.54665427246094
5.56496485156282,-0.914585034179687,9.79707319335937,-1.61369191894531
5.5671361826175,-0.905008227539062,9.7683427734375,-1.54665427246094
5.56930751367219,-0.909796630859375,9.80186159667969,-1.52750065917969
5.57147884472687,-0.928950244140625,9.82580361328125,-1.55144267578125
5.5737177744008,-0.895431420898437,9.79228479003906,-1.54186586914062
5.57595670407474,-0.924161840820312,9.80665,-1.54186586914062
5.57819563374867,-0.909796630859375,9.84016882324219,-1.54665427246094
5.58040992057321,-0.909796630859375,9.83059201660156,-1.61369191894531
5.58262420739775,-0.924161840820312,9.8449572265625,-1.60411511230469
5.5848384942223,-0.909796630859375,9.83059201660156,-1.56580788574219
5.58704701055259,-0.924161840820312,9.77791958007812,-1.53707746582031
5.58925552688288,-0.9193734375,9.80665,-1.59453830566406
5.59146404321318,-0.924161840820312,9.79228479003906,-1.55144267578125
5.59367361195233,-0.890643017578125,9.79707319335937,-1.57538469238281
5.59588318069147,-0.909796630859375,9.83059201660156,-1.57538469238281
5.59809274943062,-0.93852705078125,9.80665,-1.52750065917969
5.60030391197402,-0.909796630859375,9.81622680664062,-1.55144267578125
5.60251507451743,-0.93852705078125,9.81622680664062,-1.52750065917969
5.60472623706083,-0.914585034179687,9.80186159667969,-1.53707746582031
5.60693892060033,-0.876277807617187,9.81143840332031,-1.51313544921875
5.60915160413982,-0.909796630859375,9.81622680664062,-1.53707746582031
5.61136428767932,-0.909796630859375,9.80665,-1.58496149902344
5.61682776654759,-0.871489404296875,9.79707319335937,-1.51792385253906
5.62229124541587,-0.890643017578125,9.79707319335937,-1.56101948242187
5.62775472428414,-0.890643017578125,9.81622680664062,-1.58017309570312
5.62994613726157,-0.9193734375,9.84974562988281,-1.48919343261719
5.63213755023901,-0.909796630859375,9.78749638671875,-1.53707746582031
5.63432896321644,-0.905008227539062,9.78749638671875,-1.56101948242187
5.63652354503068,-0.90021982421875,9.78270798339844,-1.56101948242187
5.63871812684492,-0.909796630859375,9.81622680664062,-1.51313544921875
5.64091270865915,-0.905008227539062,9.78270798339844,-1.52750065917969
5.64315890191002,-0.905008227539062,9.84016882324219,-1.51792385253906
5.64540509516088,-0.895431420898437,9.85453403320312,-1.55144267578125
5.64765128841175,-0.890643017578125,9.81622680664062,-1.58017309570312
5.64984019184056,-0.837970581054687,9.81622680664062,-1.55623107910156
5.65202909526938,-0.914585034179687,9.81622680664062,-1.5322890625
5.6542179986982,-0.8810662109375,9.79707319335937,-1.57538469238281
5.6564060957034,-0.928950244140625,9.76355437011719,-1.58017309570312
5.65859419270861,-0.962469067382812,9.78270798339844,-1.52271225585937
5.66078228971382,-0.895431420898437,9.82101520996094,-1.65199914550781
5.66297061675375,-0.93852705078125,9.78749638671875,-1.55144267578125
5.66515894379368,-0.9193734375,9.80186159667969,-1.57538469238281
5.66734727083361,-0.914585034179687,9.80186159667969,-1.61848032226562
5.66953553255236,-0.905008227539062,9.80186159667969,-1.58496149902344
5.67172379427111,-0.924161840820312,9.83059201660156,-1.55144267578125
5.67391205598986,-0.86191259765625,9.79228479003906,-1.58496149902344
5.67610029144992,-0.857124194335937,9.78749638671875,-1.58017309570312
5.67828852690999,-0.8810662109375,9.80665,-1.50355864257812
5.68047676237006,-0.837970581054687,9.81143840332031,-1.58017309570312
5.68476024305582,-0.871489404296875,9.78270798339844,-1.51313544921875
5.68904372374159,-0.885854614257812,9.84016882324219,-1.50834704589844
5.69332720442735,-0.895431420898437,9.79707319335937,-1.59453830566406
5.69549387999159,-0.943315454101562,9.78749638671875,-1.54186586914062
5.69766055555583,-0.90021982421875,9.81143840332031,-1.5322890625
5.69982723112007,-0.885854614257812,9.77791958007812,-1.55623107910156
5.70199229969646,-0.905008227539062,9.79228479003906,-1.57538469238281
5.70415736827285,-0.905008227539062,9.82580361328125,-1.48919343261719
5.70632243684924,-0.928950244140625,9.82101520996094,-1.52271225585937
5.70848602962267,-0.928950244140625,9.82101520996094,-1.52750065917969
5.71064962239611,-0.876277807617187,9.80665,-1.53707746582031
5.71281321516955,-0.890643017578125,9.77791958007812,-1.52271225585937
5.71497413270427,-0.895431420898437,9.77313117675781,-1.51792385253906
5.717135050239,-0.8810662109375,9.78749638671875,-1.54665427246094
5.71929596777372,-0.90021982421875,9.78749638671875,-1.54665427246094
5.72145519639785,-0.895431420898437,9.81622680664062,-1.52750065917969
5.72361442502199,-0.8810662109375,9.78749638671875,-1.55623107910156
5.72577365364612,-0.895431420898437,9.74918916015625,-1.51313544921875
5.73232636916804,-0.948103857421875,9.84974562988281,-1.58017309570312
5.73887908468995,-0.943315454101562,9.80665,-1.55144267578125
5.74543180021187,-0.924161840820312,9.82101520996094,-1.56101948242187
5.74763151814807,-0.914585034179687,9.77791958007812,-1.53707746582031
5.74983123608426,-0.890643017578125,9.83059201660156,-1.49877023925781
5.75203095402046,-0.90021982421875,9.82580361328125,-1.54665427246094
5.75422263869928,-0.909796630859375,9.76355437011719,-1.53707746582031
5.75641432337811,-0.914585034179687,9.80665,-1.55623107910156
5.75860600805693,-0.909796630859375,9.77791958007812,-1.56101948242187
5.76078923358861,-0.924161840820312,9.78749638671875,-1.51313544921875
5.7629724591203,-0.890643017578125,9.82101520996094,-1.54186586914062
5.76515568465198,-0.90021982421875,9.84974562988281,-1.59453830566406
5.76731897767498,-0.914585034179687,9.80665,-1.58496149902344
5.76948227069799,-0.9193734375,9.79228479003906,-1.5322890625
5.77164556372099,-0.9193734375,9.82101520996094,-1.51313544921875
5.77383145087377,-0.933738647460937,9.7683427734375,-1.46525141601562
5.77601733802655,-0.876277807617187,9.78270798339844,-1.52271225585937
5.77820322517933,-0.909796630859375,9.81143840332031,-1.4939818359375
5.7804053208282,-0.905008227539062,9.7683427734375,-1.53707746582031
5.78260741647707,-0.948103857421875,9.81622680664062,-1.55623107910156
5.78480951212595,-0.924161840820312,9.80186159667969,-1.51792385253906
5.78701403925268,-0.890643017578125,9.78749638671875,-1.52271225585937
5.78921856637942,-0.885854614257812,9.79707319335937,-1.59453830566406
5.79142309350615,-0.905008227539062,9.78749638671875,-1.5322890625
5.79362935050485,-0.928950244140625,9.77791958007812,-1.58017309570312
5.79583560750355,-0.909796630859375,9.80665,-1.51313544921875
5.79804186450225,-0.895431420898437,9.79707319335937,-1.52750065917969
5.80021682999704,-0.890643017578125,9.80665,-1.54665427246094
5.80239179549183,-0.90021982421875,9.79228479003906,-1.5322890625
5.80456676098662,-0.90021982421875,9.81143840332031,-1.54186586914062
5.80679336108427,-0.90021982421875,9.78749638671875,-1.54186586914062
5.80901996118193,-0.890643017578125,9.82101520996094,-1.54665427246094
5.81124656127959,-0.90021982421875,9.85932243652344,-1.5705962890625
5.8134306381025,-0.90021982421875,9.78749638671875,-1.52750065917969
5.81561471492542,-0.909796630859375,9.77791958007812,-1.5322890625
5.81779879174834,-0.914585034179687,9.83059201660156,-1.5705962890625
5.81997879842151,-0.933738647460937,9.81143840332031,-1.56101948242187
5.82215880509469,-0.928950244140625,9.82101520996094,-1.57538469238281
5.82433881176786,-0.924161840820312,9.76355437011719,-1.5322890625
5.82651942586291,-0.890643017578125,9.78749638671875,-1.57538469238281
5.82870003995796,-0.928950244140625,9.81622680664062,-1.58496149902344
5.83088065405301,-0.928950244140625,9.84016882324219,-1.50355864257812
5.83306168638808,-0.914585034179687,9.80665,-1.57538469238281
5.83524271872314,-0.981622680664062,9.81143840332031,-1.54186586914062
5.83742375105821,-0.90021982421875,9.78749638671875,-1.55144267578125
5.83960484659857,-0.928950244140625,9.78270798339844,-1.5322890625
5.84178594213894,-0.909796630859375,9.79707319335937,-1.5705962890625
5.8439670376793,-0.928950244140625,9.80186159667969,-1.5322890625
5.84614181014024,-0.9193734375,9.76355437011719,-1.51792385253906
5.84831658260118,-0.943315454101562,9.75876596679687,-1.53707746582031
5.85049135506212,-0.914585034179687,9.78270798339844,-1.47482822265625
5.85594253021945,-0.924161840820312,9.81622680664062,-1.56580788574219
5.86139370537678,-0.905008227539062,9.78749638671875,-1.48440502929687
5.86684488053412,-0.943315454101562,9.81143840332031,-1.5705962890625
5.86900146950981,-0.905008227539062,9.79707319335937,-1.5705962890625
5.87115805848551,-0.9193734375,9.79707319335937,-1.5322890625
5.87331464746121,-0.885854614257812,9.79228479003906,-1.52271225585937
5.87543481157796,-0.933738647460937,9.80665,-1.60411511230469
5.87755497569471,-0.933738647460937,9.82580361328125,-1.54665427246094
5.87967513981147,-0.914585034179687,9.83538041992187,-1.54186586914062
5.88179636333577,-0.8810662109375,9.80186159667969,-1.46525141601562
5.88391758686007,-0.890643017578125,9.79707319335937,-1.49877023925781
5.88603881038438,-0.924161840820312,9.82580361328125,-1.4939818359375
5.88816088737006,-0.924161840820312,9.77791958007812,-1.49877023925781
5.89028296435573,-0.871489404296875,9.78749638671875,-1.51792385253906
5.89240504134141,-0.933738647460937,9.81143840332031,-1.50355864257812
5.89466105810574,-0.928950244140625,9.81143840332031,-1.51792385253906
5.89691707487006,-0.8810662109375,9.81622680664062,-1.48919343261719
5.89917309163439,-0.895431420898437,9.78270798339844,-1.53707746582031
5.9014467268883,-0.890643017578125,9.79228479003906,-1.53707746582031
5.9037203621422,-0.933738647460937,9.81622680664062,-1.5322890625
5.90599399739611,-0.9193734375,9.80186159667969,-1.52750065917969
5.90826954210097,-0.90021982421875,9.81143840332031,-1.51313544921875
5.91054508680583,-0.909796630859375,9.79228479003906,-1.57538469238281
5.91282063151068,-0.948103857421875,9.78270798339844,-1.51792385253906
5.91508266558186,-0.871489404296875,9.83059201660156,-1.55623107910156
5.91734469965304,-0.909796630859375,9.80665,-1.47482822265625
5.91960673372422,-0.885854614257812,9.82101520996094,-1.47961662597656
5.92182547189696,-0.914585034179687,9.78270798339844,-1.48919343261719
5.92404421006971,-0.914585034179687,9.79707319335937,-1.5705962890625
5.92626294824245,-0.914585034179687,9.81622680664062,-1.53707746582031
5.92848388932318,-0.924161840820312,9.82101520996094,-1.56580788574219
5.93070483040391,-0.895431420898437,9.86411083984375,-1.4939818359375
5.93292577148464,-0.905008227539062,9.81622680664062,-1.53707746582031
5.93966227202717,-0.895431420898437,9.79707319335937,-1.51313544921875
5.9463987725697,-0.914585034179687,9.77313117675781,-1.51313544921875
5.95313527311223,-0.905008227539062,9.80665,-1.51313544921875
5.95523738140217,-0.905008227539062,9.79228479003906,-1.5322890625
5.9573394896921,-0.876277807617187,9.80186159667969,-1.53707746582031
5.95944159798203,-0.93852705078125,9.78749638671875,-1.54665427246094
5.96154153700113,-0.871489404296875,9.80186159667969,-1.4939818359375
5.96364147602023,-0.9193734375,9.77791958007812,-1.54186586914062
5.96574141503933,-0.905008227539062,9.79707319335937,-1.4939818359375
5.96785346647162,-0.909796630859375,9.80186159667969,-1.4939818359375
5.96996551790391,-0.895431420898437,9.77313117675781,-1.52750065917969
5.9720775693362,-0.924161840820312,9.78749638671875,-1.50834704589844
5.97418951519124,-0.943315454101562,9.79707319335937,-1.52271225585937
5.97630146104627,-0.909796630859375,9.81622680664062,-1.51792385253906
5.97841340690131,-0.885854614257812,9.83059201660156,-1.49877023925781
5.98056678342041,-0.90021982421875,9.83059201660156,-1.5322890625
5.9827201599395,-0.885854614257812,9.82580361328125,-1.54186586914062
5.9848735364586,-0.895431420898437,9.82580361328125,-1.56101948242187
5.98702565223551,-0.952892260742187,9.82101520996094,-1.5705962890625
5.98917776801242,-0.885854614257812,9.83059201660156,-1.5322890625
5.99132988378933,-0.90021982421875,9.79707319335937,-1.53707746582031
5.99344846065565,-0.871489404296875,9.84016882324219,-1.48919343261719
5.99556703752197,-0.90021982421875,9.83538041992187,-1.52271225585937
5.99768561438829,-0.895431420898437,9.82101520996094,-1.50834704589844
5.99975855238742,-0.933738647460937,9.86889924316406,-1.55144267578125
6.00183149038655,-0.890643017578125,9.85932243652344,-1.54186586914062
6.00390442838568,-0.905008227539062,9.83059201660156,-1.55623107910156
6.00594434733099,-0.890643017578125,9.85453403320312,-1.455674609375
6.0079842662763,-0.914585034179687,9.81622680664062,-1.46525141601562
6.01002418522161,-0.8810662109375,9.81143840332031,-1.47482822265625
6.01212893370251,-0.895431420898437,9.74918916015625,-1.51792385253906
6.01423368218341,-0.890643017578125,9.80665,-1.44130939941406
6.01633843066432,-0.909796630859375,9.78749638671875,-1.48919343261719
6.01844512500026,-0.86191259765625,9.77313117675781,-1.46046301269531
6.0205518193362,-0.914585034179687,9.82580361328125,-1.47961662597656
6.02265851367214,-0.905008227539062,9.81143840332031,-1.59453830566406
6.02476536056884,-0.924161840820312,9.78270798339844,-1.5322890625
6.02687220746555,-0.905008227539062,9.83538041992187,-1.49877023925781
6.02897905436225,-0.90021982421875,9.80665,-1.54186586914062
6.03108579915392,-0.9576806640625,9.86411083984375,-1.49877023925781
6.03319254394558,-0.90021982421875,9.7683427734375,-1.56101948242187
6.03529928873725,-0.967257470703125,9.78270798339844,-1.51313544921875
6.03740583940999,-0.952892260742187,9.86411083984375,-1.48919343261719
6.03951239008274,-0.948103857421875,9.78749638671875,-1.55623107910156
6.04161894075548,-0.97683427734375,9.81143840332031,-1.53707746582031
6.04385264093994,-0.981622680664062,9.81143840332031,-1.58496149902344
6.04608634112441,-0.93852705078125,9.83059201660156,-1.58974990234375
6.04832004130887,-0.9576806640625,9.81622680664062,-1.56580788574219
6.05053002797337,-0.943315454101562,9.83538041992187,-1.54186586914062
6.05274001463787,-0.9576806640625,9.84016882324219,-1.52750065917969
6.05495000130237,-0.952892260742187,9.83059201660156,-1.52271225585937
6.05714212662789,-0.933738647460937,9.83538041992187,-1.54186586914062
6.05933425195341,-0.93852705078125,9.82101520996094,-1.65199914550781
6.06152637727893,-0.9193734375,9.84016882324219,-1.54186586914062
6.06372170659751,-0.943315454101562,9.82101520996094,-1.59932670898438
6.06591703591609,-0.905008227539062,9.78749638671875,-1.56580788574219
6.06811236523466,-0.948103857421875,9.81622680664062,-1.52271225585937
6.07030932313397,-0.933738647460937,9.75876596679687,-1.52750065917969
6.07250628103328,-0.905008227539062,9.77791958007812,-1.57538469238281
6.07470323893258,-0.9193734375,9.77313117675781,-1.48440502929687
6.07690170258276,-0.90021982421875,9.80186159667969,-1.54665427246094
6.07910016623293,-0.90021982421875,9.74440075683594,-1.55623107910156
6.0812986298831,-0.924161840820312,9.77791958007812,-1.58017309570312
6.08349742816869,-0.928950244140625,9.80186159667969,-1.55144267578125
6.08569622645429,-0.952892260742187,9.77313117675781,-1.50355864257812
6.08789502473988,-0.90021982421875,9.75876596679687,-1.55144267578125
6.09330364190025,-0.928950244140625,9.82101520996094,-1.5322890625
6.09871225906062,-0.928950244140625,9.81143840332031,-1.50834704589844
6.104120876221,-0.866701000976562,9.78270798339844,-1.48919343261719
6.1062981208499,-0.952892260742187,9.75876596679687,-1.53707746582031
6.10847536547881,-0.93852705078125,9.7683427734375,-1.56101948242187
6.11065261010772,-0.924161840820312,9.80665,-1.4939818359375
6.11282861591284,-0.895431420898437,9.81143840332031,-1.58017309570312
6.11500462171796,-0.952892260742187,9.84974562988281,-1.5322890625
6.11718062752308,-0.948103857421875,9.79707319335937,-1.51792385253906
6.11932103106041,-0.9193734375,9.77313117675781,-1.52271225585937
6.12146143459773,-0.871489404296875,9.8449572265625,-1.47961662597656
6.12360183813506,-0.895431420898437,9.83059201660156,-1.51313544921875
6.12570629120581,-0.9193734375,9.81143840332031,-1.49877023925781
6.12781074427655,-0.93852705078125,9.83538041992187,-1.49877023925781
6.1299151973473,-0.914585034179687,9.79707319335937,-1.51792385253906
6.13208305460642,-0.890643017578125,9.79707319335937,-1.4939818359375
6.13425091186553,-0.871489404296875,9.75876596679687,-1.52750065917969
6.13641876912465,-0.842758984375,9.78749638671875,-1.52271225585937
6.13858578990372,-0.871489404296875,9.80186159667969,-1.50834704589844
6.1407528106828,-0.885854614257812,9.78270798339844,-1.52750065917969
6.14291983146187,-0.895431420898437,9.77313117675781,-1.53707746582031
6.14508497664416,-0.866701000976562,9.78270798339844,-1.55144267578125
6.14725012182645,-0.8810662109375,9.81622680664062,-1.52750065917969
6.14941526700874,-0.833182177734375,9.80665,-1.52750065917969
6.15155519485162,-0.86191259765625,9.81622680664062,-1.51792385253906
6.15369512269451,-0.90021982421875,9.81143840332031,-1.58017309570312
6.15583505053739,-0.905008227539062,9.80186159667969,-1.45088620605469
6.15801153447836,-0.876277807617187,9.79228479003906,-1.50834704589844
6.16018801841933,-0.895431420898437,9.87847604980469,-1.58974990234375
6.1623645023603,-0.905008227539062,9.81143840332031,-1.58017309570312
6.16453450756864,-0.871489404296875,9.84016882324219,-1.51792385253906
6.16670451277697,-0.876277807617187,9.83538041992187,-1.52271225585937
6.1688745179853,-0.86191259765625,9.82580361328125,-1.51313544921875
6.17104288343669,-0.895431420898437,9.81622680664062,-1.5322890625
6.17321124888808,-0.905008227539062,9.80186159667969,-1.55623107910156
6.17537961433946,-0.885854614257812,9.83059201660156,-1.58974990234375
6.17754596134467,-0.905008227539062,9.80665,-1.5322890625
6.17971230834988,-0.914585034179687,9.84974562988281,-1.55623107910156
6.18187865535509,-0.90021982421875,9.83538041992187,-1.55144267578125
6.18402107039416,-0.890643017578125,9.83059201660156,-1.50355864257812
6.18616348543322,-0.9193734375,9.8449572265625,-1.57538469238281
6.18830590047229,-0.905008227539062,9.86411083984375,-1.53707746582031
6.19042299867107,-0.895431420898437,9.84016882324219,-1.53707746582031
