timestamp,accel_x (m/s2),accel_y (m/s2),accel_z (m/s2)
0.00254682221138107,2.01591779785156,9.576806640625,-1.92972653808594
0.00509364442276213,2.03985981445312,9.60553706054687,-1.915361328125
0.00764046663414319,1.99197578125,9.576806640625,-1.97282216796875
0.0127383376193772,2.01591779785156,9.60074865722656,-1.90578452148437
0.0178362086046112,2.03985981445312,9.56244143066406,-1.94409174804687
0.0229340795898452,1.97282216796875,9.58638344726563,-1.92014973144531
0.0280426937391667,1.97282216796875,9.576806640625,-1.92014973144531
0.0331513078884882,1.95845695800781,9.576806640625,-1.915361328125
0.0382599220378097,1.97761057128906,9.58638344726563,-1.97282216796875
0.0435091646592885,2.00155258789062,9.58159504394531,-1.85311208496094
0.0487584072807673,2.00155258789062,9.60553706054687,-1.86268889160156
0.0540076499022462,2.05422502441406,9.58638344726563,-1.88663090820312
0.0592604107529269,1.99676418457031,9.56722983398437,-1.92493813476562
0.0645131716036076,1.96324536132812,9.57201823730469,-1.87226569824219
0.0697659324542883,2.02070620117187,9.54328781738281,-1.87226569824219
0.0750220966252755,1.95845695800781,9.56722983398437,-1.82438166503906
0.0802782607962627,2.00155258789062,9.52892260742187,-1.82438166503906
0.0855344249672498,1.99197578125,9.5384994140625,-1.92493813476562
0.0907955054793774,2.00155258789062,9.52413420410156,-1.92014973144531
0.096056585991505,1.9536685546875,9.56244143066406,-1.96324536132812
0.101317666503633,2.01591779785156,9.51934580078125,-1.94409174804687
0.10664573974581,1.98239897460937,9.54807622070313,-1.90578452148437
0.111973812987988,1.97761057128906,9.54328781738281,-1.86268889160156
0.117301886230166,1.97282216796875,9.51455739746094,-1.90099611816406
0.12263397444633,1.97282216796875,9.55765302734375,-1.89620771484375
0.127966062662495,1.99197578125,9.53371101074219,-1.93451494140625
0.133298150878659,1.97282216796875,9.51934580078125,-1.97761057128906
0.138631820366489,1.94409174804687,9.55765302734375,-1.93930334472656
0.143965489854319,1.9536685546875,9.51934580078125,-1.90578452148437
0.149299159342149,1.97282216796875,9.5384994140625,-1.96803376464844
0.162636290933923,1.99197578125,9.57201823730469,-1.96803376464844
0.175973422525696,1.97282216796875,9.55286462402344,-2.01591779785156
0.189310554117469,1.97282216796875,9.56244143066406,-2.04464821777344
0.194649409369163,1.94409174804687,9.54807622070313,-2.04464821777344
0.199988264620856,1.93930334472656,9.55286462402344,-2.04464821777344
0.20532711987255,1.92014973144531,9.58638344726563,-2.02070620117187
0.21066747349668,1.97761057128906,9.58638344726563,-1.96803376464844
0.21600782712081,1.92493813476562,9.55286462402344,-2.04464821777344
0.22134818074494,1.96803376464844,9.57201823730469,-2.03985981445312
0.226693548257913,1.92493813476562,9.58159504394531,-1.99676418457031
0.232038915770886,1.90578452148437,9.58159504394531,-2.05901342773437
0.237384283283859,1.92972653808594,9.60553706054687,-2.01591779785156
0.245477892957202,1.92014973144531,9.59117185058594,-1.97761057128906
0.253571502630545,1.89620771484375,9.58638344726563,-2.02549460449219
0.261665112303888,1.94888015136719,9.60074865722656,-2.00155258789062
0.267075216253507,1.95845695800781,9.57201823730469,-2.01112939453125
0.272485320203126,1.93930334472656,9.55765302734375,-2.03985981445312
0.277895424152746,1.90578452148437,9.54328781738281,-2.04943662109375
0.283307805988689,1.94888015136719,9.54328781738281,-2.11647426757812
0.288720187824633,1.93930334472656,9.53371101074219,-2.00155258789062
0.294132569660576,1.92014973144531,9.56244143066406,-1.96803376464844
0.299546891166623,1.92014973144531,9.55286462402344,-2.09253225097656
0.30496121267267,1.915361328125,9.53371101074219,-2.0302830078125
0.310375534178718,1.90099611816406,9.56722983398437,-2.04943662109375
0.315791502603152,1.92972653808594,9.58159504394531,-2.03507141113281
0.321207471027587,1.93451494140625,9.54328781738281,-2.01112939453125
0.326623439452021,1.93930334472656,9.5384994140625,-2.06380183105469
0.332184674695043,1.93930334472656,9.54328781738281,-2.1068974609375
0.337745909938064,1.93451494140625,9.5384994140625,-2.09732065429687
0.343307145181086,1.91057292480469,9.56244143066406,-2.09253225097656
0.348876313800872,1.92014973144531,9.56722983398437,-2.05422502441406
0.354445482420658,1.87226569824219,9.58159504394531,-2.08295544433594
0.360014651040444,1.92972653808594,9.5384994140625,-2.07337863769531
0.36558796267235,1.86747729492187,9.54328781738281,-2.04943662109375
0.371161274304256,1.87226569824219,9.58159504394531,-2.04464821777344
0.376734585936163,1.86747729492187,9.53371101074219,-2.07816704101562
0.382313395614972,1.87226569824219,9.56244143066406,-2.15478149414062
0.387892205293781,1.83395847167969,9.52892260742187,-2.10210905761719
0.39347101497259,1.86268889160156,9.5384994140625,-2.04464821777344
0.39905220475121,1.85790048828125,9.55286462402344,-2.068590234375
0.404633394529829,1.89141931152344,9.56722983398437,-2.0302830078125
0.410214584308449,1.82917006835937,9.5384994140625,-2.05901342773437
0.415797158961235,1.81001645507812,9.54328781738281,-2.09253225097656
0.421379733614022,1.85311208496094,9.54807622070313,-2.04464821777344
0.426962308266809,1.81959326171875,9.56722983398437,-2.02070620117187
0.432546894421288,1.81480485839844,9.57201823730469,-2.04943662109375
0.438131480575767,1.82438166503906,9.59596025390625,-2.068590234375
0.443716066730246,1.83395847167969,9.5384994140625,-2.03985981445312
0.457774207463766,1.86747729492187,9.54328781738281,-2.05901342773437
0.471832348197286,1.87226569824219,9.56244143066406,-2.10210905761719
0.485890488930806,1.83395847167969,9.54328781738281,-2.11647426757812
0.49153676725111,1.83395847167969,9.576806640625,-2.19308872070312
0.497183045571414,1.82917006835937,9.54807622070313,-2.09253225097656
0.502829323891717,1.8770541015625,9.54328781738281,-2.1068974609375
0.508478965493263,1.86268889160156,9.54328781738281,-2.11168586425781
0.514128607094809,1.82917006835937,9.52892260742187,-2.10210905761719
0.519778248696355,1.88184250488281,9.55765302734375,-2.11168586425781
0.525431196938541,1.89620771484375,9.56722983398437,-2.11168586425781
0.531084145180728,1.89141931152344,9.54807622070313,-2.11168586425781
0.536737093422914,1.88184250488281,9.54807622070313,-2.11168586425781
0.542392092988867,1.94409174804687,9.55765302734375,-2.08774384765625
0.54804709255482,1.90578452148437,9.50976899414063,-2.11168586425781
0.553702092120773,1.915361328125,9.55765302734375,-2.07337863769531
0.559419285588642,1.90099611816406,9.52413420410156,-1.99676418457031
0.56513647905651,1.89620771484375,9.52413420410156,-2.07337863769531
0.570853672524379,1.91057292480469,9.54807622070313,-2.08295544433594
0.576572912107717,1.89620771484375,9.53371101074219,-2.0302830078125
0.582292151691055,1.92493813476562,9.59117185058594,-2.07337863769531
0.588011391274392,1.94409174804687,9.54328781738281,-2.08295544433594
0.59373211208604,1.90578452148437,9.54328781738281,-2.07816704101562
0.599452832897687,1.93451494140625,9.56722983398437,-2.08774384765625
0.605173553709335,1.93930334472656,9.52892260742187,-2.068590234375
0.610895675996687,1.92493813476562,9.56722983398437,-2.05422502441406
0.61661779828404,1.92014973144531,9.55286462402344,-2.03507141113281
0.622339920571392,1.90578452148437,9.48103857421875,-2.10210905761719
0.628063801430718,1.89141931152344,9.5384994140625,-2.068590234375
0.633787682290044,1.92014973144531,9.55286462402344,-2.05901342773437
0.63951156314937,1.86747729492187,9.53371101074219,-2.12605107421875
0.64530681738114,1.915361328125,9.53371101074219,-2.07816704101562
0.651102071612911,1.89141931152344,9.55765302734375,-2.068590234375
0.656897325844682,1.89620771484375,9.5384994140625,-2.09732065429687
0.662694898544354,1.89620771484375,9.51455739746094,-2.11647426757812
0.668492471244027,1.90578452148437,9.55286462402344,-2.11168586425781
0.674290043943699,1.89620771484375,9.53371101074219,-2.15478149414062
0.680088967554809,1.8770541015625,9.52413420410156,-2.12126267089844
0.685887891165919,1.88663090820312,9.55765302734375,-2.06380183105469
0.691686814777029,1.89141931152344,9.55286462402344,-2.08774384765625
0.6974874408621,1.94888015136719,9.51455739746094,-2.02070620117187
0.703288066947171,1.88663090820312,9.54807622070313,-2.01112939453125
0.709088693032243,1.87226569824219,9.5001921875,-2.06380183105469
0.71489105240723,1.89620771484375,9.5001921875,-2.03985981445312
0.720693411782217,1.87226569824219,9.54328781738281,-1.99197578125
0.726495771157204,1.88184250488281,9.50976899414063,-2.05422502441406
0.732369851994861,1.87226569824219,9.52413420410156,-2.03985981445312
0.738243932832518,1.915361328125,9.54807622070313,-1.99676418457031
0.744118013670175,1.92972653808594,9.52413420410156,-2.0302830078125
0.749994141925394,1.915361328125,9.54328781738281,-2.02070620117187
0.755870270180613,1.90099611816406,9.53371101074219,-1.94888015136719
0.761746398435832,1.91057292480469,9.50976899414063,-2.00155258789062
0.767623879772619,1.92014973144531,9.52413420410156,-2.00155258789062
0.773501361109406,1.915361328125,9.49061538085937,-2.03985981445312
0.779378842446192,1.9536685546875,9.50498059082031,-2.03985981445312
0.785257678600696,1.94888015136719,9.49061538085937,-2.01591779785156
0.7911365147552,1.92493813476562,9.54807622070313,-2.02070620117187
0.797015350909703,1.88663090820312,9.51934580078125,-2.0302830078125
0.80289549598344,1.88184250488281,9.52892260742187,-2.04943662109375
0.808775641057177,1.93930334472656,9.51934580078125,-2.03985981445312
0.814655786130913,1.92493813476562,9.51455739746094,-2.01591779785156
0.820605847545816,1.93930334472656,9.46667336425781,-2.04464821777344
0.826555908960719,1.92972653808594,9.52413420410156,-2.07337863769531
0.832505970375621,1.915361328125,9.53371101074219,-2.05422502441406
0.838459244681133,1.92014973144531,9.51934580078125,-2.03985981445312
0.844412518986644,1.93451494140625,9.50498059082031,-2.04943662109375
0.850365793292156,1.94409174804687,9.50498059082031,-2.04943662109375
0.856321060002244,1.92493813476562,9.53371101074219,-2.03985981445312
0.862276326712333,1.92972653808594,9.50976899414063,-2.03507141113281
0.868231593422422,1.93930334472656,9.55286462402344,-2.03507141113281
0.874188127385063,1.89141931152344,9.56244143066406,-2.11168586425781
0.880144661347705,1.91057292480469,9.5384994140625,-2.06380183105469
0.886101195310346,1.91057292480469,9.55286462402344,-2.068590234375
0.89205860210285,1.93930334472656,9.58159504394531,-2.03507141113281
0.898016008895354,1.92493813476562,9.56244143066406,-2.11168586425781
0.903973415687858,1.92493813476562,9.57201823730469,-2.01591779785156
0.910081499780764,1.8770541015625,9.58638344726563,-1.97282216796875
0.916189583873669,1.915361328125,9.56244143066406,-2.03507141113281
0.922297667966575,1.91057292480469,9.59117185058594,-2.03985981445312
0.928407876950909,1.89141931152344,9.54807622070313,-2.04943662109375
0.934518085935243,1.91057292480469,9.58638344726563,-2.08295544433594
0.940628294919577,1.88663090820312,9.57201823730469,-2.06380183105469
0.946739875865755,1.89620771484375,9.56244143066406,-2.05901342773437
0.952851456811933,1.91057292480469,9.52892260742187,-2.08774384765625
0.95896303775811,1.85790048828125,9.54807622070313,-2.08295544433594
0.965077499889143,1.90099611816406,9.5384994140625,-2.08774384765625
0.971191962020176,1.90578452148437,9.54807622070313,-2.04943662109375
0.977306424151209,1.89620771484375,9.52892260742187,-2.08774384765625
0.983422552623419,1.91057292480469,9.52892260742187,-2.11647426757812
0.989538681095629,1.90578452148437,9.5384994140625,-2.08774384765625
0.995654809567839,1.92493813476562,9.5001921875,-2.04943662109375
1.00177225954616,1.91057292480469,9.5384994140625,-2.13083947753906
1.00788970952448,1.8770541015625,9.52413420410156,-2.05901342773437
1.0140071595028,1.82917006835937,9.5384994140625,-2.09732065429687
1.02012756054442,1.90578452148437,9.50976899414063,-2.14999309082031
1.02624796158604,1.86268889160156,9.54807622070313,-2.12126267089844
1.03236836262766,1.84832368164062,9.52413420410156,-2.16914670410156
1.04778442355422,1.90578452148437,9.53371101074219,-2.22660754394531
1.06320048448077,1.84353527832031,9.54328781738281,-2.17872351074219
1.07861654540733,1.85311208496094,9.54328781738281,-2.16435830078125
1.08480497357575,1.84353527832031,9.54807622070313,-2.19308872070312
1.09099340174417,1.84353527832031,9.55765302734375,-2.16914670410156
1.09718182991259,1.86747729492187,9.54328781738281,-2.18830031738281
1.10337158512093,1.84353527832031,9.59596025390625,-2.1452046875
1.10956134032928,1.80522805175781,9.59596025390625,-2.18830031738281
1.11575109553763,1.86747729492187,9.63426748046875,-2.15956989746094
1.121942343259,1.82438166503906,9.58638344726563,-2.15478149414062
1.12813359098036,1.85311208496094,9.576806640625,-2.1835119140625
1.13432483870173,1.82438166503906,9.58638344726563,-2.18830031738281
1.14051739903154,1.89620771484375,9.60074865722656,-2.15956989746094
1.14670995936136,1.87226569824219,9.61990227050781,-2.13083947753906
1.15290251969117,1.86268889160156,9.61032546386719,-2.09732065429687
1.15916695263386,1.90099611816406,9.63426748046875,-2.24097275390625
1.16543138557656,1.88184250488281,9.60553706054687,-2.17872351074219
1.17169581851925,1.8770541015625,9.576806640625,-2.13083947753906
1.17796244905308,1.87226569824219,9.576806640625,-2.14999309082031
1.1842290795869,1.85790048828125,9.54328781738281,-2.11168586425781
1.19049571012073,1.88184250488281,9.576806640625,-2.09732065429687
1.19676374343235,1.86747729492187,9.576806640625,-2.15478149414062
1.20303177674397,1.90578452148437,9.55286462402344,-2.14041628417969
1.2092998100556,1.8770541015625,9.55286462402344,-2.08774384765625
1.21556942214323,1.88184250488281,9.56244143066406,-2.16435830078125
1.22183903423087,1.87226569824219,9.55765302734375,-2.1452046875
1.2281086463185,1.8770541015625,9.54328781738281,-2.13562788085937
1.23437955007286,1.88184250488281,9.57201823730469,-2.14999309082031
1.24065045382722,1.86747729492187,9.5384994140625,-2.1068974609375
1.24692135758158,1.85790048828125,9.56244143066406,-2.13083947753906
1.25326356906159,1.86268889160156,9.58638344726563,-2.07816704101562
1.2596057805416,1.86268889160156,9.5384994140625,-2.15956989746094
1.26594799202161,1.84832368164062,9.56722983398437,-2.16914670410156
1.27229746305028,1.84832368164062,9.56722983398437,-2.15478149414062
1.27864693407895,1.78128603515625,9.59117185058594,-2.14999309082031
1.28499640510762,1.84353527832031,9.54328781738281,-2.18830031738281
1.29134750102778,1.86268889160156,9.58638344726563,-2.13562788085937
1.29769859694793,1.8770541015625,9.59117185058594,-2.14999309082031
1.30404969286809,1.82917006835937,9.63905588378906,-2.068590234375
1.31040210584549,1.81959326171875,9.576806640625,-2.1068974609375
1.31675451882289,1.81959326171875,9.61032546386719,-2.05422502441406
1.32310693180028,1.838746875,9.60553706054687,-2.08295544433594
1.32946067073258,1.82917006835937,9.62947907714844,-2.13562788085937
1.33581440966488,1.84832368164062,9.56722983398437,-2.11168586425781
1.34216814859718,1.86268889160156,9.57201823730469,-2.11647426757812
1.34858788318921,1.8004396484375,9.56244143066406,-2.03507141113281
1.35500761778123,1.81959326171875,9.59117185058594,-2.07816704101562
1.36142735237325,1.838746875,9.5384994140625,-2.08774384765625
1.36785055332812,1.84832368164062,9.60074865722656,-2.10210905761719
1.37427375428299,1.83395847167969,9.59596025390625,-2.08774384765625
1.38069695523785,1.8004396484375,9.61990227050781,-2.08295544433594
1.38712230918746,1.8004396484375,9.56722983398437,-2.07337863769531
1.39354766313706,1.79565124511719,9.58638344726563,-2.05901342773437
1.39997301708667,1.79086284179687,9.59596025390625,-2.12605107421875
1.40640204877068,1.82438166503906,9.56722983398437,-2.068590234375
1.4128310804547,1.80522805175781,9.576806640625,-2.12126267089844
1.41926011213872,1.8004396484375,9.576806640625,-2.1068974609375
1.42569448171338,1.8004396484375,9.56722983398437,-2.07816704101562
1.43212885128804,1.81001645507812,9.59596025390625,-2.1068974609375
1.4385632208627,1.75255561523437,9.56722983398437,-2.07337863769531
1.44506065065868,1.83395847167969,9.576806640625,-2.08774384765625
1.45155808045466,1.81480485839844,9.58159504394531,-2.08295544433594
1.45805551025063,1.81959326171875,9.56722983398437,-2.17393510742187
1.46455617604922,1.81480485839844,9.58159504394531,-2.1835119140625
1.47105684184781,1.8004396484375,9.58638344726563,-2.07337863769531
1.4775575076464,1.80522805175781,9.56722983398437,-2.11168586425781
1.48405957687383,1.82438166503906,9.58159504394531,-2.10210905761719
1.49056164610126,1.84353527832031,9.54328781738281,-2.08774384765625
1.49706371532869,1.78607443847656,9.576806640625,-2.1068974609375
1.50356729301963,1.79086284179687,9.59117185058594,-2.13562788085937
1.51007087071057,1.81959326171875,9.55765302734375,-2.16435830078125
1.51657444840151,1.81001645507812,9.576806640625,-2.06380183105469
1.52307932361852,1.81001645507812,9.5384994140625,-2.07337863769531
1.52958419883553,1.84832368164062,9.57201823730469,-2.14041628417969
1.53608907405254,1.8004396484375,9.54807622070313,-2.12126267089844
1.54266562060201,1.8004396484375,9.61032546386719,-2.11647426757812
1.54924216715148,1.84353527832031,9.60553706054687,-2.09732065429687
1.55581871370094,1.85790048828125,9.58638344726563,-2.12126267089844
1.56239730213408,1.838746875,9.59117185058594,-2.04943662109375
1.56897589056721,1.82917006835937,9.576806640625,-2.12605107421875
1.57555447900035,1.8770541015625,9.56244143066406,-2.02070620117187
1.58213442778509,1.86747729492187,9.57201823730469,-2.00155258789062
1.58871437656984,1.86268889160156,9.59596025390625,-2.04943662109375
1.59529432535459,1.86747729492187,9.54807622070313,-2.03507141113281
1.60187573334067,1.81480485839844,9.59117185058594,-2.0302830078125
1.60845714132675,1.88184250488281,9.576806640625,-2.05901342773437
1.61503854931283,1.838746875,9.57201823730469,-2.068590234375
1.62162172715567,1.84353527832031,9.55765302734375,-2.068590234375
1.6282049049985,1.85790048828125,9.57201823730469,-2.02549460449219
1.63478808284134,1.838746875,9.54807622070313,-2.05901342773437
1.64144314512428,1.82917006835937,9.58638344726563,-2.04943662109375
1.64809820740722,1.88184250488281,9.61032546386719,-2.02070620117187
1.65475326969016,1.84832368164062,9.56722983398437,-2.02070620117187
1.66141096988548,1.84832368164062,9.576806640625,-2.06380183105469
1.6680686700808,1.8004396484375,9.54807622070313,-1.96803376464844
1.67472637027612,1.84832368164062,9.56722983398437,-1.93930334472656
1.68138656569713,1.80522805175781,9.54328781738281,-2.0302830078125
1.68804676111815,1.82917006835937,9.56244143066406,-2.04464821777344
1.69470695653916,1.78128603515625,9.55286462402344,-1.95845695800781
1.70136847910857,1.81959326171875,9.51455739746094,-2.02549460449219
1.70803000167797,1.79086284179687,9.53371101074219,-1.99197578125
1.71469152424737,1.79565124511719,9.576806640625,-2.00155258789062
1.72135429388711,1.762132421875,9.576806640625,-1.97761057128906
1.72801706352684,1.78128603515625,9.5384994140625,-1.99197578125
1.73467983316658,1.77170922851562,9.56722983398437,-1.93930334472656
1.74141327544091,1.79565124511719,9.55286462402344,-1.9536685546875
1.74814671771524,1.72861359863281,9.576806640625,-1.99197578125
1.75488015998957,1.73819040527344,9.5001921875,-1.96324536132812
1.76161812971609,1.70467158203125,9.54328781738281,-2.01112939453125
1.76835609944262,1.7238251953125,9.52413420410156,-2.02070620117187
1.77509406916914,1.72861359863281,9.53371101074219,-2.00155258789062
1.78183447010226,1.7238251953125,9.50976899414063,-2.04943662109375
1.78857487103537,1.73340200195312,9.51934580078125,-2.0302830078125
1.79531527196849,1.69030637207031,9.48103857421875,-2.01591779785156
1.80205703021498,1.70945998535156,9.51934580078125,-2.02070620117187
1.80879878846146,1.68551796875,9.5001921875,-2.03985981445312
1.81554054670795,1.70945998535156,9.5001921875,-2.08774384765625
1.82228360443365,1.69988317871094,9.50498059082031,-2.03985981445312
1.82902666215934,1.71424838867187,9.52892260742187,-2.12605107421875
1.83576971988504,1.70467158203125,9.49061538085937,-2.07337863769531
1.84258005983727,1.71903679199219,9.49061538085937,-2.09253225097656
1.84939039978949,1.73340200195312,9.49061538085937,-2.10210905761719
1.85620073974172,1.69509477539062,9.50498059082031,-2.05422502441406
1.86301304453773,1.71424838867187,9.52413420410156,-2.08774384765625
1.86982534933374,1.70467158203125,9.49540378417969,-2.05901342773437
1.87663765412975,1.69988317871094,9.55765302734375,-2.11168586425781
1.8834568280664,1.74297880859375,9.59596025390625,-2.03985981445312
1.89027600200304,1.70467158203125,9.56244143066406,-2.11647426757812
1.89709517593968,1.7238251953125,9.55765302734375,-2.05422502441406
1.90391861474179,1.71424838867187,9.57201823730469,-2.06380183105469
1.91074205354389,1.75734401855469,9.55286462402344,-2.08774384765625
1.917565492346,1.73340200195312,9.62469067382813,-2.07337863769531
1.92439171999356,1.69030637207031,9.57201823730469,-2.17393510742187
1.93121794764111,1.69030637207031,9.61032546386719,-2.11647426757812
1.93804417528867,1.74776721191406,9.59117185058594,-2.09732065429687
1.94493266064025,1.74297880859375,9.58638344726563,-2.07337863769531
1.95182114599184,1.70945998535156,9.64384428710937,-2.17872351074219
1.95870963134342,1.70945998535156,9.58159504394531,-2.12605107421875
1.96560035497625,1.74297880859375,9.60074865722656,-2.11647426757812
1.97249107860908,1.69988317871094,9.59117185058594,-2.13083947753906
1.9793818022419,1.75255561523437,9.62469067382813,-2.17393510742187
1.98627385649534,1.77170922851562,9.62469067382813,-2.14999309082031
1.99316591074878,1.75734401855469,9.6151138671875,-2.14041628417969
2.00005796500221,1.77649763183594,9.59117185058594,-2.20745393066406
2.00695141009769,1.79086284179687,9.62947907714844,-2.1835119140625
2.01384485519318,1.73340200195312,9.6151138671875,-2.13562788085937
2.02073830028866,1.76692082519531,9.60553706054687,-2.14041628417969
2.02763379952908,1.762132421875,9.60074865722656,-2.19308872070312
2.0345292987695,1.74776721191406,9.59117185058594,-2.1068974609375
2.04142479800993,1.75734401855469,9.58159504394531,-2.15478149414062
2.04839136539274,1.77649763183594,9.61990227050781,-2.1452046875
2.05535793277555,1.76692082519531,9.59117185058594,-2.1068974609375
2.06232450015835,1.80522805175781,9.56244143066406,-2.10210905761719
2.06929346326602,1.73819040527344,9.55765302734375,-2.12126267089844
2.07626242637368,1.78607443847656,9.55765302734375,-2.1068974609375
2.08323138948134,1.74297880859375,9.56244143066406,-2.06380183105469
2.09020168537974,1.77649763183594,9.52413420410156,-2.09732065429687
2.09717198127815,1.762132421875,9.5384994140625,-2.14999309082031
2.10414227717655,1.75255561523437,9.51934580078125,-2.1068974609375
2.11111419178157,1.762132421875,9.54328781738281,-2.10210905761719
2.11808610638659,1.79086284179687,9.54328781738281,-2.13562788085937
2.12505802099162,1.762132421875,9.5384994140625,-2.13562788085937
2.13203171652111,1.74776721191406,9.56244143066406,-2.14041628417969
2.13900541205061,1.73340200195312,9.54807622070313,-2.068590234375
2.1459791075801,1.80522805175781,9.55765302734375,-2.1835119140625
2.15302449277975,1.78128603515625,9.55286462402344,-2.14041628417969
2.16006987797939,1.79086284179687,9.55765302734375,-2.07337863769531
2.16711526317903,1.75255561523437,9.55765302734375,-2.13562788085937
2.17416263796199,1.78607443847656,9.56722983398437,-2.1068974609375
2.18121001274496,1.7238251953125,9.57201823730469,-2.15478149414062
2.18825738752793,1.78128603515625,9.58159504394531,-2.15478149414062
2.19530609976749,1.75734401855469,9.55765302734375,-2.09732065429687
2.20235481200706,1.79086284179687,9.56722983398437,-2.06380183105469
2.20940352424662,1.79086284179687,9.55286462402344,-2.11168586425781
2.216453687007,1.78607443847656,9.59596025390625,-2.03507141113281
2.22350384976738,1.762132421875,9.56244143066406,-2.04943662109375
2.23055401252776,1.78128603515625,9.576806640625,-2.00634099121094
2.23760595284892,1.82438166503906,9.57201823730469,-2.0302830078125
2.24465789317009,1.79086284179687,9.56722983398437,-2.07337863769531
2.25170983349125,1.79565124511719,9.60074865722656,-2.05422502441406
2.25883256471951,1.81001645507812,9.58638344726563,-2.09253225097656
2.26595529594778,1.838746875,9.59596025390625,-2.0302830078125
2.27307802717604,1.8004396484375,9.60074865722656,-2.03507141113281
2.28020616053105,1.80522805175781,9.5384994140625,-2.08295544433594
2.28733429388605,1.80522805175781,9.56244143066406,-2.06380183105469
2.29446242724106,1.82917006835937,9.58159504394531,-2.11647426757812
2.30159323138599,1.84832368164062,9.56244143066406,-2.11647426757812
2.30872403553093,1.81959326171875,9.576806640625,-2.07337863769531
2.31585483967586,1.82917006835937,9.58638344726563,-2.07337863769531
2.32298700189375,1.87226569824219,9.60553706054687,-2.06380183105469
2.33011916411164,1.83395847167969,9.60553706054687,-2.05422502441406
2.33725132632952,1.85311208496094,9.59596025390625,-2.07337863769531
2.34438475406389,1.86747729492187,9.58638344726563,-2.01112939453125
2.35151818179825,1.87226569824219,9.62469067382813,-2.068590234375
2.35865160953261,1.83395847167969,9.61032546386719,-2.14999309082031
2.36330673089763,1.89141931152344,9.60074865722656,-2.1068974609375
2.36796185226264,1.838746875,9.58638344726563,-2.04943662109375
2.37261697362766,1.88663090820312,9.59117185058594,-2.10210905761719
2.37472571418757,1.86747729492187,9.59596025390625,-2.14041628417969
2.37683445474748,1.85790048828125,9.58638344726563,-2.05422502441406
2.37894319530739,1.84353527832031,9.56722983398437,-2.09732065429687
2.38104431488203,1.84832368164062,9.55286462402344,-2.08295544433594
2.38314543445667,1.8770541015625,9.58638344726563,-2.14041628417969
2.38524655403131,1.84353527832031,9.56722983398437,-2.1068974609375
2.38721074359302,1.85790048828125,9.55765302734375,-2.1068974609375
2.38917493315472,1.86268889160156,9.53371101074219,-2.10210905761719
2.39113912271642,1.84353527832031,9.56244143066406,-2.07337863769531
2.39310233875379,1.81480485839844,9.56244143066406,-2.05901342773437
2.39506555479115,1.82917006835937,9.56722983398437,-2.09253225097656
2.39702877082851,1.81480485839844,9.56722983398437,-2.06380183105469
2.39905146342833,1.82438166503906,9.59117185058594,-2.08774384765625
2.40107415602815,1.78607443847656,9.576806640625,-2.09253225097656
2.40309684862797,1.79565124511719,9.56244143066406,-2.05422502441406
2.40511736219133,1.83395847167969,9.58159504394531,-2.13562788085937
2.4071378757547,1.85311208496094,9.57201823730469,-2.08774384765625
2.40915838931807,1.76692082519531,9.52892260742187,-2.08295544433594
2.41111331618441,1.77649763183594,9.55286462402344,-2.11647426757812
2.41306824305076,1.84832368164062,9.56244143066406,-2.068590234375
2.41502316991711,1.83395847167969,9.56244143066406,-2.068590234375
2.41697565309852,1.8004396484375,9.50976899414063,-2.12605107421875
2.41892813627993,1.82438166503906,9.53371101074219,-2.13083947753906
2.42088061946134,1.81480485839844,9.55286462402344,-2.07337863769531
2.42283329187889,1.82438166503906,9.52892260742187,-2.0302830078125
2.42478596429644,1.84832368164062,9.54807622070313,-2.15956989746094
2.42673863671399,1.81001645507812,9.54807622070313,-2.06380183105469
2.42876149756743,1.77649763183594,9.55286462402344,-2.068590234375
2.43078435842087,1.83395847167969,9.54807622070313,-2.05901342773437
2.43280721927431,1.78128603515625,9.55765302734375,-2.07337863769531
2.43483161121494,1.83395847167969,9.5384994140625,-2.068590234375
2.43685600315556,1.82438166503906,9.58638344726563,-2.02070620117187
2.43888039509619,1.75734401855469,9.56244143066406,-2.11168586425781
2.44090419745083,1.77649763183594,9.58638344726563,-2.03985981445312
2.44292799980548,1.77170922851562,9.59117185058594,-2.10210905761719
2.44495180216012,1.75255561523437,9.55286462402344,-2.07816704101562
2.44697449720136,1.79565124511719,9.55286462402344,-2.12126267089844
2.44899719224261,1.762132421875,9.55286462402344,-2.15478149414062
2.45101988728385,1.77649763183594,9.60074865722656,-2.05901342773437
2.45304128268316,1.75255561523437,9.60074865722656,-2.13562788085937
2.45506267808247,1.762132421875,9.56244143066406,-2.12126267089844
2.45708407348178,1.78128603515625,9.5384994140625,-2.12126267089844
2.45915887727411,1.74776721191406,9.55286462402344,-2.15478149414062
2.46123368106644,1.77649763183594,9.57201823730469,-2.03507141113281
2.46330848485877,1.79086284179687,9.61990227050781,-2.06380183105469
2.46534030549681,1.80522805175781,9.576806640625,-2.11168586425781
2.46737212613486,1.81959326171875,9.61032546386719,-2.09253225097656
2.4694039467729,1.80522805175781,9.51455739746094,-2.13083947753906
2.47143319026251,1.8004396484375,9.5384994140625,-2.068590234375
2.47346243375212,1.79565124511719,9.51934580078125,-2.1068974609375
2.47549167724173,1.80522805175781,9.54328781738281,-2.07337863769531
2.47752013535804,1.78607443847656,9.51455739746094,-2.03985981445312
2.47954859347434,1.8004396484375,9.5001921875,-2.0302830078125
2.48157705159065,1.78607443847656,9.57201823730469,-2.068590234375
2.48360536799692,1.82438166503906,9.54807622070313,-2.04464821777344
2.48563368440318,1.80522805175781,9.57201823730469,-2.068590234375
2.48766200080945,1.86268889160156,9.55286462402344,-2.10210905761719
2.48976024614368,1.83395847167969,9.54328781738281,-2.12126267089844
2.49185849147792,1.82917006835937,9.55286462402344,-2.14999309082031
2.49395673681215,1.85311208496094,9.56244143066406,-2.07816704101562
2.49591329725051,1.83395847167969,9.57201823730469,-2.07816704101562
2.49786985768886,1.838746875,9.54328781738281,-2.05901342773437
2.49982641812721,1.88184250488281,9.5384994140625,-2.09732065429687
2.50177795534508,1.84832368164062,9.58638344726563,-2.14999309082031
2.50372949256295,1.84353527832031,9.60553706054687,-2.068590234375
2.50568102978082,1.86268889160156,9.61032546386719,-2.05422502441406
2.50762995447705,1.83395847167969,9.56244143066406,-2.06380183105469
2.50957887917328,1.82438166503906,9.59596025390625,-2.07816704101562
2.51152780386951,1.81480485839844,9.53371101074219,-2.05901342773437
2.51347250862212,1.81959326171875,9.59117185058594,-2.09253225097656
2.51541721337473,1.79565124511719,9.58638344726563,-2.0302830078125
2.51736191812734,1.82917006835937,9.576806640625,-2.00634099121094
2.5193726238565,1.838746875,9.57201823730469,-2.06380183105469
2.52138332958566,1.81480485839844,9.576806640625,-2.13083947753906
2.52339403531482,1.81001645507812,9.52892260742187,-2.07337863769531
2.52540535052746,1.8004396484375,9.56244143066406,-2.068590234375
2.5274166657401,1.82438166503906,9.55286462402344,-2.14041628417969
2.52942798095273,1.79086284179687,9.54807622070313,-2.12126267089844
2.53144265315329,1.8004396484375,9.56244143066406,-2.03985981445312
2.53345732535384,1.81480485839844,9.58159504394531,-2.08295544433594
2.5354719975544,1.8004396484375,9.58159504394531,-2.04943662109375
2.53746989707694,1.81959326171875,9.55765302734375,-2.068590234375
2.53946779659949,1.81480485839844,9.55286462402344,-2.06380183105469
2.54146569612203,1.79565124511719,9.54328781738281,-2.068590234375
2.54343878802736,1.80522805175781,9.53371101074219,-1.99676418457031
2.5454118799327,1.78607443847656,9.576806640625,-2.07816704101562
2.54738497183803,1.79086284179687,9.56244143066406,-2.068590234375
2.54949117393221,1.79565124511719,9.52892260742187,-1.95845695800781
2.55159737602639,1.8004396484375,9.55765302734375,-2.02549460449219
2.55370357812058,1.80522805175781,9.5384994140625,-2.02549460449219
2.5558070001041,1.83395847167969,9.55286462402344,-2.0302830078125
2.55791042208762,1.81480485839844,9.52892260742187,-2.05422502441406
2.56001384407114,1.838746875,9.5384994140625,-2.00155258789062
2.56211548480466,1.82438166503906,9.5384994140625,-1.99676418457031
2.56421712553818,1.85311208496094,9.54328781738281,-1.99676418457031
2.56631876627171,1.838746875,9.56722983398437,-2.02549460449219
2.56841923963323,1.8770541015625,9.51934580078125,-2.08774384765625
2.57051971299476,1.838746875,9.52413420410156,-2.08295544433594
2.57262018635629,1.82438166503906,9.52892260742187,-2.07337863769531
2.57468988248259,1.85790048828125,9.51934580078125,-2.11168586425781
2.5767595786089,1.86747729492187,9.50976899414063,-2.02549460449219
2.5788292747352,1.86268889160156,9.52892260742187,-2.04464821777344
2.58086839393009,1.85790048828125,9.51934580078125,-2.02549460449219
2.58290751312499,1.82438166503906,9.53371101074219,-1.92493813476562
2.58494663231988,1.8004396484375,9.53371101074219,-1.97282216796875
2.58698549142362,1.84832368164062,9.59117185058594,-2.0302830078125
2.58902435052736,1.83395847167969,9.576806640625,-2.05901342773437
2.5910632096311,1.8004396484375,9.58159504394531,-2.02070620117187
2.5962714083344,1.87226569824219,9.54328781738281,-2.03985981445312
2.60147960703769,1.85311208496094,9.54328781738281,-2.02070620117187
2.60668780574099,1.89141931152344,9.55765302734375,-2.02549460449219
2.60872102297189,1.82438166503906,9.56722983398437,-1.97761057128906
2.61075424020279,1.91057292480469,9.56722983398437,-2.05901342773437
2.61278745743368,1.88184250488281,9.576806640625,-1.99197578125
2.6148197054805,1.8770541015625,9.5384994140625,-1.99197578125
2.61685195352732,1.88663090820312,9.57201823730469,-2.05422502441406
2.61888420157413,1.84832368164062,9.56244143066406,-2.06380183105469
2.62091635532848,1.86268889160156,9.57201823730469,-2.09253225097656
2.62294850908283,1.85311208496094,9.6151138671875,-2.09253225097656
2.62498066283717,1.90578452148437,9.6151138671875,-2.12605107421875
2.62708483406114,1.838746875,9.60074865722656,-2.13083947753906
2.62918900528511,1.87226569824219,9.61032546386719,-2.08774384765625
2.63129317650908,1.84353527832031,9.60553706054687,-2.1068974609375
2.63340237572784,1.838746875,9.64863269042969,-2.08295544433594
2.63551157494661,1.838746875,9.64863269042969,-2.10210905761719
2.63762077416538,1.80522805175781,9.64384428710937,-2.14041628417969
2.63965989873134,1.78128603515625,9.62947907714844,-2.09253225097656
2.64169902329729,1.838746875,9.67736311035156,-2.12605107421875
2.64373814786325,1.83395847167969,9.6151138671875,-2.19787712402344
2.64577656452991,1.84832368164062,9.67736311035156,-2.15478149414062
2.64781498119657,1.83395847167969,9.65342109375,-2.10210905761719
2.64985339786324,1.84353527832031,9.65342109375,-2.11168586425781
2.65189173000298,1.83395847167969,9.63905588378906,-2.12126267089844
2.65393006214273,1.81959326171875,9.64863269042969,-2.12605107421875
2.65596839428247,1.81480485839844,9.67257470703125,-2.09253225097656
2.65800670841005,1.81001645507812,9.67736311035156,-2.12126267089844
2.66004502253763,1.82438166503906,9.66778630371094,-2.14999309082031
2.66208333666521,1.79565124511719,9.68693991699219,-2.09253225097656
2.66418543866178,1.80522805175781,9.62947907714844,-2.11647426757812
2.66628754065835,1.79086284179687,9.65820949707031,-2.11168586425781
2.66838964265492,1.79086284179687,9.6151138671875,-2.08774384765625
2.67042427080162,1.82438166503906,9.63426748046875,-2.12126267089844
2.67245889894832,1.77649763183594,9.62469067382813,-2.08774384765625
2.67449352709502,1.77649763183594,9.63426748046875,-2.13562788085937
2.67652856214283,1.78607443847656,9.6151138671875,-2.08295544433594
2.67856359719065,1.79565124511719,9.63426748046875,-2.04464821777344
2.68059863223846,1.83395847167969,9.63426748046875,-2.10210905761719
2.68263530867068,1.84353527832031,9.62469067382813,-2.07337863769531
2.68467198510291,1.81959326171875,9.62469067382813,-2.05901342773437
2.68670866153514,1.82438166503906,9.61032546386719,-2.08295544433594
2.68874846513756,1.79565124511719,9.64384428710937,-2.05422502441406
2.69078826873999,1.81480485839844,9.6151138671875,-2.04943662109375
2.69282807234242,1.81959326171875,9.59596025390625,-2.08774384765625
2.69493091142662,1.81959326171875,9.58638344726563,-2.04943662109375
2.69703375051082,1.83395847167969,9.56244143066406,-2.06380183105469
2.69913658959501,1.79565124511719,9.61032546386719,-2.06380183105469
2.701091105003,1.80522805175781,9.6151138671875,-2.02549460449219
2.70304562041099,1.81480485839844,9.55286462402344,-2.08774384765625
2.70500013581898,1.81001645507812,9.59117185058594,-2.02070620117187
2.7069542358624,1.81959326171875,9.61032546386719,-2.00155258789062
2.70890833590583,1.80522805175781,9.58159504394531,-2.02070620117187
2.71086243594925,1.81480485839844,9.60553706054687,-1.98239897460937
2.71281679510726,1.80522805175781,9.67257470703125,-2.02070620117187
2.71477115426527,1.8004396484375,9.60553706054687,-1.99676418457031
2.71672551342328,1.79565124511719,9.61032546386719,-1.97761057128906
2.71867876157872,1.80522805175781,9.61032546386719,-2.01591779785156
2.72063200973416,1.82438166503906,9.64384428710937,-1.98239897460937
2.72258525788959,1.8004396484375,9.58159504394531,-1.98718737792969
2.72468863722986,1.8004396484375,9.56722983398437,-1.96324536132812
2.72679201657013,1.81480485839844,9.60074865722656,-2.01112939453125
2.7288953959104,1.77170922851562,9.56722983398437,-1.94409174804687
2.73099961107963,1.82438166503906,9.57201823730469,-1.92972653808594
2.73310382624887,1.82438166503906,9.58159504394531,-2.00155258789062
2.7352080414181,1.81959326171875,9.57201823730469,-2.01112939453125
2.737310820715,1.81480485839844,9.57201823730469,-1.99676418457031
2.7394136000119,1.81959326171875,9.55286462402344,-2.09253225097656
2.74151637930879,1.78607443847656,9.55765302734375,-2.03507141113281
2.74359581813805,1.81001645507812,9.55765302734375,-2.04943662109375
2.74567525696731,1.76692082519531,9.52892260742187,-2.10210905761719
2.74775469579657,1.79565124511719,9.51934580078125,-2.04943662109375
2.74980254771174,1.82438166503906,9.50976899414063,-2.00634099121094
2.7518503996269,1.81001645507812,9.55765302734375,-2.09253225097656
2.75389825154207,1.81001645507812,9.52413420410156,-2.068590234375
2.75593803073044,1.81959326171875,9.49540378417969,-2.04943662109375
2.75797780991881,1.8004396484375,9.51934580078125,-2.01112939453125
2.76001758910718,1.77649763183594,9.52892260742187,-2.08774384765625
2.76212495520959,1.79086284179687,9.54807622070313,-2.1068974609375
2.764232321312,1.76692082519531,9.50498059082031,-2.06380183105469
2.76633968741442,1.81001645507812,9.56244143066406,-2.02070620117187
2.77161290106458,1.8004396484375,9.60074865722656,-2.1068974609375
2.77688611471475,1.75255561523437,9.55765302734375,-2.1068974609375
2.78215932836491,1.78128603515625,9.60553706054687,-2.14999309082031
2.78419924546561,1.73819040527344,9.58159504394531,-2.05901342773437
2.78623916256631,1.76692082519531,9.55765302734375,-2.068590234375
2.78827907966701,1.79565124511719,9.62947907714844,-2.02549460449219
2.79031812176771,1.72861359863281,9.62469067382813,-2.13083947753906
2.79235716386842,1.73819040527344,9.60074865722656,-2.03507141113281
2.79439620596912,1.79086284179687,9.62469067382813,-2.11168586425781
2.79643520423302,1.75255561523437,9.65342109375,-2.07337863769531
2.79847420249691,1.80522805175781,9.59117185058594,-2.05901342773437
2.8005132007608,1.82917006835937,9.56722983398437,-2.13083947753906
2.80255191723217,1.74776721191406,9.64384428710937,-2.10210905761719
2.80459063370353,1.73819040527344,9.59117185058594,-2.14041628417969
2.80662935017489,1.74297880859375,9.61990227050781,-2.07816704101562
2.80873131122085,1.73340200195312,9.65342109375,-2.08774384765625
2.81083327226681,1.74776721191406,9.63426748046875,-2.09253225097656
2.81293523331277,1.78128603515625,9.64863269042969,-2.04464821777344
2.81496809746206,1.81480485839844,9.62947907714844,-2.06380183105469
2.81700096161135,1.79565124511719,9.61990227050781,-2.11168586425781
2.81903382576064,1.75255561523437,9.62947907714844,-2.0302830078125
2.82106298168509,1.77170922851562,9.61032546386719,-2.04943662109375
2.82309213760954,1.78607443847656,9.61032546386719,-1.99197578125
2.82512129353398,1.79565124511719,9.59117185058594,-2.03507141113281
2.82715298222754,1.78607443847656,9.55286462402344,-2.03507141113281
2.82918467092109,1.81001645507812,9.64863269042969,-2.07337863769531
2.83121635961464,1.81959326171875,9.57201823730469,-2.02549460449219
2.83325219707128,1.79565124511719,9.57201823730469,-2.03985981445312
2.83528803452792,1.79086284179687,9.56244143066406,-2.11168586425781
2.83732387198455,1.79086284179687,9.56244143066406,-2.07337863769531
2.8394995257389,1.8004396484375,9.56244143066406,-2.06380183105469
2.84167517949324,1.73819040527344,9.57201823730469,-2.02549460449219
2.84385083324759,1.80522805175781,9.59596025390625,-2.05901342773437
2.84596276033087,1.80522805175781,9.58159504394531,-2.04943662109375
2.84807468741415,1.82917006835937,9.58638344726563,-2.04464821777344
2.85018661449743,1.8004396484375,9.55765302734375,-2.05422502441406
2.85229651803473,1.81001645507812,9.58159504394531,-2.09253225097656
2.85440642157204,1.81001645507812,9.58159504394531,-2.068590234375
2.85651632510934,1.82917006835937,9.61990227050781,-2.0302830078125
2.85862586373781,1.79086284179687,9.58638344726563,-2.00155258789062
2.86073540236629,1.838746875,9.56244143066406,-2.1068974609375
2.86284494099476,1.79565124511719,9.5384994140625,-2.08295544433594
2.86495211601643,1.81959326171875,9.57201823730469,-2.02070620117187
2.8670592910381,1.78607443847656,9.59117185058594,-2.01591779785156
2.86916646605977,1.82438166503906,9.55765302734375,-2.01591779785156
2.87126986004843,1.79565124511719,9.53371101074219,-2.06380183105469
2.8733732540371,1.8004396484375,9.576806640625,-2.07337863769531
2.87547664802577,1.82438166503906,9.55765302734375,-2.10210905761719
2.87751827053014,1.8770541015625,9.5384994140625,-2.09732065429687
2.87955989303451,1.81001645507812,9.52413420410156,-2.04464821777344
2.88160151553888,1.82438166503906,9.56722983398437,-2.10210905761719
2.88681668529805,1.86747729492187,9.61032546386719,-1.94888015136719
2.89203185505723,1.86268889160156,9.63426748046875,-2.02070620117187
2.89724702481641,1.88184250488281,9.64384428710937,-1.98239897460937
2.89935354673478,1.88663090820312,9.64863269042969,-2.02549460449219
2.90146006865316,1.8770541015625,9.63426748046875,-1.98718737792969
2.90356659057153,1.90578452148437,9.6151138671875,-1.98718737792969
2.90563793719694,1.86268889160156,9.62469067382813,-1.9536685546875
2.90770928382235,1.88663090820312,9.6151138671875,-2.00155258789062
2.90978063044776,1.86747729492187,9.61032546386719,-1.99197578125
2.91181646747034,1.85790048828125,9.64384428710937,-1.96803376464844
2.91385230449292,1.92493813476562,9.60553706054687,-1.91057292480469
2.9158881415155,1.86268889160156,9.58638344726563,-1.9536685546875
2.91792352405671,1.89620771484375,9.57201823730469,-1.90578452148437
2.91995890659793,1.88184250488281,9.60074865722656,-1.96803376464844
2.92199428913915,1.84353527832031,9.60074865722656,-1.98239897460937
2.92410121850115,1.82917006835937,9.576806640625,-1.98718737792969
2.92620814786314,1.89141931152344,9.58638344726563,-1.94409174804687
2.92831507722514,1.838746875,9.57201823730469,-1.94888015136719
2.93042565388534,1.85311208496094,9.58159504394531,-1.90578452148437
2.93253623054555,1.82438166503906,9.5384994140625,-1.91057292480469
2.93464680720575,1.85790048828125,9.5384994140625,-1.94409174804687
2.93672238929129,1.82917006835937,9.53371101074219,-1.90099611816406
2.93879797137684,1.79565124511719,9.51455739746094,-1.93451494140625
2.94087355346238,1.80522805175781,9.55765302734375,-1.90578452148437
2.9429131984819,1.81959326171875,9.58159504394531,-1.89620771484375
2.94495284350143,1.81001645507812,9.56244143066406,-1.85311208496094
2.94699248852095,1.81001645507812,9.6151138671875,-1.92493813476562
2.94903085462335,1.77649763183594,9.576806640625,-1.86268889160156
2.95106922072574,1.81959326171875,9.56722983398437,-1.85311208496094
2.95310758682814,1.762132421875,9.56722983398437,-1.84832368164062
2.95514538896572,1.75734401855469,9.56722983398437,-1.86268889160156
2.9571831911033,1.77649763183594,9.576806640625,-1.92972653808594
2.95922099324088,1.78128603515625,9.60553706054687,-1.87226569824219
2.9613226991328,1.79086284179687,9.58159504394531,-1.86747729492187
2.96342440502472,1.79086284179687,9.54807622070313,-1.88184250488281
2.96552611091664,1.74297880859375,9.61990227050781,-1.88184250488281
2.9675939555889,1.78607443847656,9.576806640625,-1.88184250488281
2.96966180026116,1.81001645507812,9.59596025390625,-1.94888015136719
2.97172964493342,1.77170922851562,9.58638344726563,-1.93930334472656
2.97376353908485,1.77649763183594,9.60553706054687,-1.95845695800781
2.97579743323629,1.762132421875,9.61990227050781,-1.93451494140625
2.97783132738772,1.78607443847656,9.61032546386719,-1.915361328125
2.97986307944937,1.76692082519531,9.62469067382813,-1.96803376464844
2.98189483151102,1.75734401855469,9.63426748046875,-1.92493813476562
2.98392658357267,1.762132421875,9.63905588378906,-1.95845695800781
2.98596058807575,1.79086284179687,9.67736311035156,-1.88663090820312
2.98799459257882,1.79086284179687,9.62947907714844,-1.94888015136719
2.9900285970819,1.77649763183594,9.64863269042969,-1.91057292480469
2.99220613549337,1.80522805175781,9.64863269042969,-1.9536685546875
2.99438367390483,1.79565124511719,9.67736311035156,-1.97761057128906
2.99656121231629,1.8004396484375,9.67736311035156,-2.01112939453125
2.99870666875072,1.81001645507812,9.63905588378906,-1.93930334472656
3.00085212518515,1.85790048828125,9.65820949707031,-1.915361328125
3.00299758161958,1.82917006835937,9.69651672363281,-1.84353527832031
3.00511031154578,1.85311208496094,9.730035546875,-1.88184250488281
3.00722304147198,1.84832368164062,9.66299790039063,-1.86747729492187
3.00933577139818,1.88184250488281,9.67257470703125,-1.88663090820312
3.01144536156742,1.838746875,9.70609353027344,-1.92493813476562
3.01355495173666,1.85311208496094,9.65342109375,-1.88663090820312
3.01566454190589,1.83395847167969,9.68215151367187,-1.84832368164062
3.01784116706864,1.86747729492187,9.70130512695312,-1.92972653808594
3.02001779223139,1.86268889160156,9.75397756347656,-1.90578452148437
3.02219441739413,1.88663090820312,9.66299790039063,-1.8770541015625
3.02437045265884,1.86747729492187,9.67257470703125,-1.89620771484375
3.02654648792355,1.88663090820312,9.76355437011719,-1.89620771484375
3.02872252318826,1.84832368164062,9.73482395019531,-1.915361328125
3.03086735180149,1.85790048828125,9.730035546875,-1.85311208496094
3.03301218041472,1.89141931152344,9.68693991699219,-1.86747729492187
3.03515700902796,1.8770541015625,9.71088193359375,-1.82917006835937
3.04056574877399,1.81959326171875,9.80665,-1.81480485839844
3.04597448852002,1.86747729492187,9.79228479003906,-1.78607443847656
3.05138322826605,1.92014973144531,9.75876596679687,-1.73819040527344
3.05357395200737,1.86268889160156,9.79707319335937,-1.75255561523437
3.0557646757487,1.92014973144531,9.80186159667969,-1.77649763183594
3.05795539949003,1.89620771484375,9.79707319335937,-1.74776721191406
3.06014588256299,1.91057292480469,9.79228479003906,-1.75734401855469
3.06233636563595,1.915361328125,9.77791958007812,-1.762132421875
3.06452684870891,1.90099611816406,9.81622680664062,-1.72861359863281
3.06664759328352,1.92014973144531,9.82580361328125,-1.69988317871094
3.06876833785814,1.94409174804687,9.86411083984375,-1.69509477539062
3.07088908243276,1.97761057128906,9.87368764648437,-1.69509477539062
3.07406782122937,1.88184250488281,9.87368764648437,-1.66157595214844
3.07724656002599,1.88184250488281,9.85453403320312,-1.65199914550781
3.0804252988226,1.90099611816406,9.91199487304687,-1.63284553222656
3.08254426138776,1.86747729492187,9.84974562988281,-1.56101948242187
3.08466322395291,1.84353527832031,9.86889924316406,-1.55623107910156
3.08678218651806,1.82917006835937,9.87847604980469,-1.50834704589844
3.08890068375113,1.8770541015625,9.81622680664062,-1.5705962890625
3.0910191809842,1.86268889160156,9.87847604980469,-1.49877023925781
3.09313767821726,1.89141931152344,9.83538041992187,-1.50355864257812
3.09735925487744,1.97282216796875,9.8449572265625,-1.50834704589844
3.10158083153762,2.00155258789062,9.82580361328125,-1.5322890625
3.1058024081978,1.98239897460937,9.85453403320312,-1.55623107910156
3.10791088291571,2.02070620117187,9.87368764648437,-1.60411511230469
3.11001935763361,2.0302830078125,9.84974562988281,-1.55623107910156
3.11212783235152,2.05422502441406,9.85453403320312,-1.5705962890625
3.11423823068054,2.068590234375,9.91199487304687,-1.58974990234375
3.11634862900956,2.05422502441406,9.883264453125,-1.57538469238281
3.11845902733859,2.06380183105469,9.87847604980469,-1.61369191894531
3.12057037434384,2.08295544433594,9.8449572265625,-1.57538469238281
3.12268172134909,2.07816704101562,9.93114848632812,-1.59453830566406
3.12479306835434,2.05901342773437,9.92636008300781,-1.52271225585937
3.12687183034437,2.08295544433594,9.9215716796875,-1.56101948242187
3.1289505923344,1.99676418457031,9.89762966308594,-1.48440502929687
3.13102935432443,2.04464821777344,9.88805285644531,-1.45088620605469
3.13313607795728,2.07816704101562,9.95030209960937,-1.455674609375
3.13524280159013,2.04943662109375,9.87847604980469,-1.43652099609375
3.13734952522299,2.04943662109375,9.84974562988281,-1.35032973632813
3.13945489946345,2.03507141113281,9.89762966308594,-1.38384855957031
3.14156027370391,2.04943662109375,9.87368764648437,-1.36469494628906
3.14366564794437,2.068590234375,9.92636008300781,-1.32159931640625
3.14577066313531,2.0302830078125,9.9215716796875,-1.32638771972656
3.14787567832625,2.08774384765625,9.91678327636719,-1.32638771972656
3.14998069351719,2.09732065429687,9.91199487304687,-1.33117612304687
3.15208587542908,2.11647426757812,9.86411083984375,-1.32638771972656
3.15419105734098,2.12605107421875,9.87368764648437,-1.28808049316406
3.15629623925287,2.14999309082031,9.85932243652344,-1.31681091308594
3.15836781640127,2.17393510742187,9.8449572265625,-1.31202250976562
3.16043939354967,2.17872351074219,9.85932243652344,-1.31681091308594
3.16251097069807,2.19787712402344,9.85453403320312,-1.24019645996094
3.16461727874925,2.17872351074219,9.85453403320312,-1.24977326660156
3.16672358680044,2.16914670410156,9.86411083984375,-1.21146604003906
3.16882989485163,2.19308872070312,9.883264453125,-1.20188923339844
3.1709345178985,2.21703073730469,9.86889924316406,-1.23540805664062
3.17303914094538,2.16435830078125,9.93593688964844,-1.21146604003906
3.17514376399225,2.17872351074219,9.883264453125,-1.24498486328125
3.17724632556995,2.19787712402344,9.87368764648437,-1.20188923339844
3.17934888714764,2.24576115722656,9.883264453125,-1.23061965332031
3.18145144872534,2.221819140625,9.90720646972656,-1.17794721679687
3.18355249581731,2.23618435058594,9.94072529296875,-1.22104284667969
3.18565354290928,2.21703073730469,9.95030209960937,-1.14442839355469
3.18775459000125,2.1835119140625,9.97903251953125,-1.08217915039062
3.18982471223435,2.12605107421875,10.0221281494141,-1.06302553710937
3.19189483446744,2.13562788085937,10.0077629394531,-1.05344873046875
3.19396495670054,1.97761057128906,10.0604353759766,-0.933738647460937
3.19607349701086,1.94888015136719,10.0652237792969,-0.93852705078125
3.19818203732118,2.09253225097656,10.0412817626953,-1.04387192382812
3.20029057763151,2.19308872070312,10.0987426025391,-1.08217915039062
3.2023992963815,2.23618435058594,10.0748005859375,-1.14442839355469
3.2045080151315,2.17872351074219,10.1322614257812,-1.23540805664062
3.2066167338815,2.20745393066406,10.1992990722656,-1.22583125
3.20872530815452,2.13562788085937,10.2902787353516,-1.27850368652344
3.21083388242753,2.08295544433594,10.3477395751953,-1.20667763671875
3.21294245670055,2.06380183105469,10.342951171875,-1.14442839355469
3.21505082643798,2.10210905761719,10.3237975585937,-1.08696755371094
3.21715919617541,2.14041628417969,10.3716815917969,-0.9576806640625
3.21926756591284,2.17872351074219,10.4339308349609,-0.972045874023437
3.22134141530518,2.25054956054688,10.5009684814453,-0.928950244140625
3.22341526469751,2.27449157714844,10.5344873046875,-0.90021982421875
3.22548911408984,2.28885678710938,10.4626612548828,-0.905008227539062
3.22759818358855,2.31758720703125,10.4052004150391,-0.962469067382812
3.22970725308727,2.32237561035156,10.3381627685547,-0.986411083984375
3.23181632258598,2.34631762695312,10.3621047851562,-1.0342951171875
3.23392875395535,2.31279880371094,10.3190091552734,-0.82360537109375
3.23604118532472,2.32716401367187,10.3094323486328,-0.814028564453125
3.23815361669409,2.26491477050781,10.2423947021484,-0.82360537109375
3.24026749163979,2.23139594726563,10.2615483154297,-0.703895288085937
3.24238136658549,2.24097275390625,10.2328178955078,-0.699106884765625
3.24449524153118,2.21224233398438,10.1609918457031,-0.584185205078125
3.2466087847712,2.21703073730469,10.0460701660156,-0.493205541992187
3.24872232801122,2.24576115722656,9.9981861328125,-0.430956298828125
3.25083587125124,2.23139594726563,9.99339772949219,-0.378283862304687
3.25291434352776,2.24097275390625,9.9215716796875,-0.339976635742188
3.25499281580428,2.22660754394531,9.83059201660156,-0.253785375976562
3.25707128808079,2.17872351074219,9.78749638671875,-0.129286889648437
3.25917963448923,2.15956989746094,9.72045874023437,-0.158017309570312
3.26128798089767,2.14999309082031,9.67257470703125,0.009576806640625
3.26339632730611,2.13083947753906,9.61032546386719,-0.0430956298828125
3.26550488508605,2.07816704101562,9.52892260742187,0.0909796630859375
3.26761344286598,2.1068974609375,9.6151138671875,0.0526724365234375
3.26972200064591,2.09732065429687,9.68215151367187,0.086191259765625
3.27190472162031,2.15478149414062,9.75397756347656,0.047884033203125
3.27408744259471,2.17393510742187,9.83538041992187,-0.0718260498046875
3.27627016356911,2.21703073730469,9.81143840332031,-0.0909796630859375
3.27845365011427,2.29364519042969,9.75397756347656,-0.162805712890625
3.28063713665944,2.31279880371094,9.72524714355469,-0.0909796630859375
3.2828206232046,2.35589443359375,9.68693991699219,-0.01915361328125
3.28496882670938,2.42293208007812,9.5384994140625,0.119710083007812
3.28711703021416,2.5665841796875,9.57201823730469,0.129286889648437
3.28926523371894,2.41814367675781,9.60074865722656,0.0718260498046875
3.29137732047023,2.20745393066406,9.44273134765625,-0.047884033203125
3.29348940722152,2.01591779785156,9.27992563476562,-0.09576806640625
3.29560149397281,1.88663090820312,9.15063874511719,-0.124498486328125
3.29771180148151,1.90578452148437,9.10754311523437,-0.100556469726563
3.29982210899021,1.90578452148437,8.96867941894531,-0.01915361328125
3.30193241649891,1.93451494140625,8.8489693359375,0.0383072265625
3.3040425938535,1.97761057128906,8.76277807617187,0.100556469726563
3.3061527712081,2.03985981445312,8.71489404296875,0.229843359375
3.30826294856269,2.02549460449219,8.75798967285156,0.368707055664062
3.31254955880572,2.06380183105469,8.85854614257812,0.282515795898438
3.31683616904875,2.03985981445312,8.82023891601562,0.383072265625
3.32112277929178,2.02549460449219,8.810662109375,0.416591088867187
3.32323313953485,2.068590234375,8.79150849609375,0.4213794921875
3.32534349977791,2.07816704101562,8.78193168945312,0.47884033203125
3.32745386002097,2.07337863769531,8.68616362304688,0.526724365234375
3.32956192241248,2.07816704101562,8.657433203125,0.5746083984375
3.33166998480399,2.11647426757812,8.73883605957031,0.723048901367187
3.33377804719549,2.05422502441406,8.60954916992188,0.7278373046875
3.33588282003622,2.01591779785156,8.68137521972656,0.799663354492188
3.33798759287695,2.01591779785156,8.7723548828125,0.656011254882812
3.34009236571768,2.08295544433594,8.79629689941406,0.565031591796875
3.34219590016867,2.11168586425781,8.65264479980469,0.703895288085937
3.34429943461966,2.1835119140625,8.54729992675781,0.612915625
3.34640296907065,2.24097275390625,8.350975390625,0.51714755859375
3.34850594514484,2.29364519042969,8.2360537109375,0.512359155273437
3.35060892121902,2.29843359375,8.20253488769531,0.32561142578125
3.3527118972932,2.2601263671875,8.25520732421875,0.205901342773437
3.35474463080014,2.23139594726563,8.33182177734375,-0.0335188232421875
3.35677736430707,2.24576115722656,8.18816967773437,-0.119710083007812
3.358810097814,2.16914670410156,8.01578715820312,0.0430956298828125
3.36084301594548,2.14041628417969,7.87213505859375,0.13407529296875
3.36287593407695,2.11168586425781,7.89607707519531,0.181959326171875
3.36490885220843,2.12605107421875,7.64229169921875,0.148440502929687
3.3669415561472,2.07337863769531,7.53694682617187,0.225054956054687
3.36897426008596,1.96324536132812,7.52737001953125,0.258573779296875
3.37100696402473,1.89620771484375,7.63271489257812,0.177170922851562
3.37303949218227,1.98718737792969,7.66623371582031,-0.0430956298828125
3.37507202033981,1.94888015136719,7.91044228515625,-0.0047884033203125
3.37710454849736,1.96324536132812,8.05888278808594,-0.067037646484375
3.37920599538319,1.915361328125,8.02536396484375,-0.205901342773437
3.38130744226902,2.01112939453125,7.80509741210937,-0.277727392578125
3.38340888915485,2.02070620117187,7.54173522949219,-0.454898315429687
3.38551461457801,1.99197578125,7.29273825683594,-0.40222587890625
3.38762034000117,2.01112939453125,7.19697019042969,-0.253785375976562
3.38972606542433,2.17393510742187,7.01979926757812,-0.143652099609375
3.39182514312887,2.21224233398438,6.8569935546875,-0.253785375976562
3.39392422083341,1.97282216796875,6.80910952148437,0.0143652099609375
3.39602329853795,2.16914670410156,6.42603725585937,0.105344873046875
3.39809051887484,2.11647426757812,6.40209523925781,-0.339976635742188
3.40015773921173,1.60411511230469,6.81389792480469,-0.608127221679687
3.40222495954862,1.18273562011719,7.13950935058594,-0.181959326171875
3.40426850718323,1.15879360351562,7.27358464355469,-0.167594116210937
3.40631205481784,1.37906015625,6.87135876464844,-0.794874951171875
3.40835560245245,1.19710083007812,6.90008918457031,-0.97683427734375
3.41046253127185,0.885854614257812,6.9336080078125,-0.565031591796875
3.41256946009126,0.837970581054687,6.76601389160156,-0.512359155273437
3.41467638891066,0.833182177734375,6.52180532226562,-0.866701000976562
3.41678436026482,0.895431420898437,6.26801994628906,-0.8810662109375
3.41889233161898,0.86191259765625,6.10521423339844,-0.933738647460937
3.42100030297314,0.5746083984375,5.94719692382813,-0.732625708007812
3.42310838717452,0.502782348632812,5.81791003417969,-0.560243188476563
3.4252164713759,0.4979939453125,5.67425793457031,-0.4213794921875
3.42732455557729,0.450109912109375,5.516240625,-0.679953271484375
3.42936246475697,0.445321508789062,5.55933625488281,-0.51714755859375
3.43140037393666,0.368707055664062,5.5545478515625,-0.397437475585937
3.43343828311635,0.469263525390625,5.57370146484375,-0.469263525390625
3.43547292677956,0.550666381835937,5.5545478515625,-0.474051928710937
3.43750757044277,0.622492431640625,5.56891306152344,-0.296881005859375
3.43954221410598,0.282515795898438,5.53539423828125,-0.1149216796875
3.44164245672757,0.24899697265625,5.37258852539062,0.181959326171875
3.44374269934915,0.483628735351562,5.44920297851562,-0.277727392578125
3.44584294197074,0.0718260498046875,5.91367810058594,0.253785375976562
3.44794428040391,-0.0718260498046875,5.42526096191406,0.445321508789062
3.45004561883709,-0.234631762695312,5.22414802246094,0.44053310546875
3.45214695727026,-0.05746083984375,4.86022937011719,0.0718260498046875
3.45424869989182,0.09576806640625,4.81234533691406,-0.545877978515625
3.45635044251338,-0.067037646484375,5.4013189453125,-0.493205541992187
3.45845218513495,-0.05746083984375,5.10922634277344,-0.488417138671875
3.46055409919747,0.316034619140625,6.15788666992187,-1.05344873046875
3.46265601326,0.521935961914062,6.052541796875,-0.86191259765625
3.46475792732252,0.9193734375,6.93839641113281,-1.72861359863281
3.46679607510898,0.675164868164063,7.90086547851562,-2.24097275390625
3.46883422289543,0.2681505859375,8.88248815917969,-2.19308872070312
3.47087237068189,0.028730419921875,8.63349118652344,-1.31202250976562
3.47305843795624,0.110133276367187,8.33182177734375,-1.85311208496094
3.47524450523059,0.63206923828125,8.33661018066406,-2.54264216308594
3.47743057250494,0.502782348632812,8.197746484375,-2.26491477050781
3.47961521052573,0.684741674804688,7.92480749511719,-2.34631762695312
3.48179984854651,1.20667763671875,7.79073220214844,-2.51391174316406
3.48398448656729,1.4173673828125,8.01099875488281,-2.36547124023437
3.48616779103783,1.56580788574219,7.90565388183594,-2.23139594726563
3.48835109550837,1.67594116210937,8.03972917480469,-2.13562788085937
3.49053439997891,1.77649763183594,8.10197841796875,-2.37025964355469
3.49271496931489,1.71424838867187,8.05888278808594,-2.34152922363281
3.49489553865088,1.45088620605469,8.22647690429687,-2.14041628417969
3.49707610798686,1.40300217285156,8.35576379394531,-2.21703073730469
3.49919427649814,1.63763393554687,8.197746484375,-2.61446821289062
3.50131244500943,1.47482822265625,8.30787976074219,-2.51870014648437
3.50343061352072,1.56580788574219,8.06845959472656,-2.7581203125
3.50554773635055,1.5322890625,8.3126681640625,-3.05021291503906
3.50766485918039,1.49877023925781,8.43716665039062,-3.14598098144531
3.50978198201022,1.42215578613281,8.68137521972656,-3.18907661132813
3.51189864911091,0.991199487304687,9.13148513183594,-2.92571442871094
3.51401531621159,0.93852705078125,9.06923588867187,-2.62883342285156
3.51613198331228,0.914585034179687,9.09796630859375,-3.0262708984375
3.52145938378427,0.617704028320312,8.25999572753906,-2.73896669921875
3.52678678425625,0.612915625,8.37491740722656,-2.89219560546875
3.53211418472824,0.541089575195312,8.2360537109375,-3.11725056152344
3.53414810193741,0.536301171875,8.20732329101562,-3.53863005371094
3.53618201914658,0.8044517578125,8.07324799804687,-3.76368500976562
3.53821593635575,0.5746083984375,8.26957253417969,-3.69185895996094
3.54025085323947,0.45968671875,7.97747993164062,-3.32315190429687
3.5422857701232,0.220266552734375,8.2360537109375,-2.94007963867187
3.54432068700692,0.17238251953125,8.23126530761719,-2.87783039550781
3.54635555495399,0.339976635742188,8.17859287109375,-2.42772048339844
3.54839042290106,0.359130249023437,8.03972917480469,-2.17872351074219
3.55042529084812,0.40222587890625,7.9295958984375,-2.3367408203125
3.55246016335245,0.220266552734375,7.68059892578125,-2.24576115722656
3.55449503585677,-0.138863696289063,8.02057556152344,-1.92493813476562
3.55652990836109,-0.316034619140625,8.26957253417969,-1.78607443847656
3.5587076839145,-0.4213794921875,8.25999572753906,-1.73340200195312
3.56088545946792,-0.0909796630859375,8.04930598144531,-2.47560451660156
3.56306323502133,-0.167594116210937,8.44195505371094,-2.21703073730469
3.56520761284253,-0.028730419921875,8.24563051757812,-2.08774384765625
3.56735199066372,-0.119710083007812,8.42758984375,-2.01112939453125
3.56949636848492,-0.32561142578125,8.49462749023438,-1.99676418457031
3.57160694056064,-0.536301171875,8.74362446289062,-2.05422502441406
3.57371751263635,-0.90021982421875,8.67179841308594,-2.11647426757812
3.57582808471207,-0.751779321289062,8.51378110351562,-1.79565124511719
3.57793696288593,-0.426167895507812,8.60954916992188,-1.8004396484375
3.58004584105979,-0.076614453125,8.44674345703125,-2.11168586425781
3.58215471923364,0.205901342773437,8.42758984375,-2.3367408203125
3.58426266454616,0.387860668945312,8.36534060058594,-2.29843359375
3.58637060985869,0.699106884765625,8.30787976074219,-2.34152922363281
3.58847855517121,0.665588061523437,8.47547387695312,-2.36068283691406
3.59058703607402,0.809240161132812,8.15465085449219,-2.06380183105469
3.59269551697683,1.12527478027344,8.15465085449219,-2.50433493652344
3.59480399787964,1.39821376953125,8.22168850097656,-2.34631762695312
3.60126083837453,1.28329208984375,8.89206496582031,-2.89698400878906
3.60771767886943,1.05823713378906,8.95431420898437,-2.95923325195312
3.61417451936433,0.97683427734375,8.99740983886719,-2.94007963867187
3.61628640304493,1.08217915039062,9.04529387207031,-2.987963671875
3.61839828672553,1.09654436035156,9.1554271484375,-2.98317526855469
3.62051017040613,1.07739074707031,9.34696328125,-3.02148249511719
3.62262116888706,0.8044517578125,9.16021555175781,-2.9496564453125
3.62473216736799,0.847547387695312,9.43794294433594,-2.82994636230469
3.62684316584892,0.699106884765625,9.57201823730469,-2.62883342285156
3.62895211137847,0.775721337890625,9.40442412109375,-3.22259543457031
3.63106105690802,0.97683427734375,9.6151138671875,-3.22259543457031
3.63317000243757,0.656011254882812,9.58159504394531,-3.22259543457031
3.63527655669105,0.507570751953125,9.7683427734375,-2.86825358886719
3.63738311094454,0.416591088867187,9.74918916015625,-3.04542451171875
3.63948966519803,0.474051928710937,9.72045874023437,-2.84431157226562
3.64166355169973,0.612915625,9.73961235351562,-2.93050283203125
3.64383743820143,0.981622680664062,9.79228479003906,-2.91613762207031
3.64601132470312,0.895431420898437,9.67736311035156,-2.98317526855469
3.64804710280636,0.852335791015625,9.43794294433594,-3.01669409179687
3.6500828809096,0.952892260742187,9.43794294433594,-2.94007963867187
3.65211865901284,0.943315454101562,9.52892260742187,-2.97359846191406
3.65415356710747,1.00077629394531,9.74918916015625,-2.99275207519531
3.6561884752021,0.871489404296875,9.8449572265625,-2.86825358886719
3.65822338329673,0.76614453125,9.69651672363281,-2.66235224609375
3.66025836951635,0.718260498046875,9.84974562988281,-2.69108266601562
3.66229335573596,0.737414111328125,9.98860932617187,-2.66235224609375
3.66432834195558,0.70868369140625,10.0604353759766,-2.987963671875
3.66636319840092,0.770932934570312,9.78749638671875,-2.95444484863281
3.66839805484625,0.742202514648437,9.74918916015625,-3.11725056152344
3.67043291129158,0.770932934570312,9.84016882324219,-2.85388837890625
3.6725347815173,0.59376201171875,10.0125513427734,-2.82515795898437
3.67463665174301,0.617704028320312,10.0412817626953,-2.69108266601562
3.67673852196873,0.646434448242187,10.0173397460938,-2.80600434570312
3.67891735161286,0.6512228515625,10.1609918457031,-2.9496564453125
3.68109618125699,0.63206923828125,10.0508585693359,-2.80600434570312
3.68327501090113,0.641646044921875,10.0700121826172,-2.84909997558594
3.68545489827092,0.790086547851562,10.1562034423828,-2.987963671875
3.68763478564072,0.814028564453125,10.1657802490234,-2.91134921875
3.68981467301052,0.82360537109375,10.1657802490234,-2.88740720214844
3.6919697770958,0.924161840820312,9.96945571289062,-2.81558115234375
3.69412488118108,1.06781394042969,10.1753570556641,-2.71502468261719
3.69627998526636,1.19710083007812,10.2567599121094,-2.50433493652344
3.69840325710332,1.32638771972656,10.1945106689453,-2.528276953125
3.70052652894028,1.47961662597656,10.2088758789062,-2.49475812988281
3.70264980077724,1.60411511230469,10.1131078125,-2.26491477050781
3.70483646445994,1.86747729492187,10.1945106689453,-1.94409174804687
3.70702312814264,1.81480485839844,10.2759135253906,-2.30322199707031
3.70920979182534,1.70467158203125,10.0652237792969,-2.55700737304687
3.711397211259,1.81001645507812,10.1274730224609,-2.49475812988281
3.71358463069265,1.81480485839844,10.1274730224609,-2.53306535644531
3.7157720501263,1.92014973144531,10.3190091552734,-2.43250888671875
3.72123746454148,1.31681091308594,11.1569797363281,-3.18907661132813
3.72670287895666,1.0342951171875,11.3628810791016,-2.99275207519531
3.73216829337184,0.780509741210937,11.5496288085937,-3.05021291503906
3.73428234230846,0.737414111328125,11.6070896484375,-3.13640417480469
3.73639639124508,0.790086547851562,11.6406084716797,-3.46680400390625
3.7385104401817,0.74699091796875,11.6166664550781,-3.47159240722656
3.74062065893168,0.579396801757812,11.8512982177734,-3.3710359375
3.74273087768165,0.464475122070312,11.8943938476563,-3.39018955078125
3.74484109643163,0.44053310546875,12.028469140625,-3.42849677734375
3.74695083851058,0.368707055664062,11.9662198974609,-3.5625720703125
3.74906058058953,0.40222587890625,12.1769096435547,-3.600879296875
3.75117032266849,0.435744702148437,12.3301385498047,-3.74453139648437
3.75328001298969,0.383072265625,12.2631009033203,-3.85466467285156
3.75538970331089,0.44053310546875,12.2391588867187,-3.77805021972656
3.75749939363209,0.464475122070312,12.3109849365234,-3.69664736328125
3.75967501288126,0.488417138671875,12.2918313232422,-3.56736047363281
3.76185063213044,0.5746083984375,12.3875993896484,-3.54820686035156
3.76402625137962,0.622492431640625,12.3780225830078,-3.47638081054687
3.76620246937008,0.675164868164063,12.4019645996094,-3.53863005371094
3.76837868736053,0.699106884765625,12.4402718261719,-3.61045610351562
3.77055490535099,0.76614453125,12.4019645996094,-3.56736047363281
3.77266731160103,0.866701000976562,12.4402718261719,-3.52426484375
3.77477971785106,0.933738647460937,12.5264630859375,-3.54820686035156
3.7768921241011,0.991199487304687,12.5695587158203,-3.42849677734375
3.77900372208289,1.07739074707031,12.5839239257812,-3.30878669433594
3.78111532006468,1.12048637695313,12.6126543457031,-3.33751711425781
3.78322691804647,1.15879360351562,12.71799921875,-3.17471140136719
3.78540942672703,1.15879360351562,12.6940572021484,-3.11246215820312
3.78759193540759,1.149216796875,12.7419412353516,-3.03105930175781
3.78977444408815,1.1875240234375,12.7563064453125,-3.11246215820312
3.79195872305953,1.19231242675781,12.8472861083984,-3.03105930175781
3.7941430020309,1.17315881347656,12.8808049316406,-2.97838686523437
3.79632728100228,1.24498486328125,12.9622077880859,-2.97838686523437
3.79850890187898,1.23540805664062,13.0867062744141,-2.98317526855469
3.80069052275568,1.21146604003906,13.1489555175781,-3.12203896484375
3.80287214363238,1.16837041015625,13.1058598876953,-3.141192578125
3.80491087746486,1.09175595703125,13.2830308105469,-3.03105930175781
3.80694961129734,1.07260234375,13.2878192138672,-2.96881005859375
3.80898834512982,1.07739074707031,13.4410481201172,-2.97838686523437
3.81102615979997,1.04866032714844,13.5942770263672,-3.04063610839844
3.81306397447012,1.07260234375,13.6756798828125,-3.10767375488281
3.81510178914027,1.06302553710937,13.6756798828125,-3.09330854492187
3.81713896578958,1.03908352050781,13.8097551757813,-3.05500131835937
3.81917614243889,1.00556469726562,13.9007348388672,-2.84431157226562
3.8212133190882,1.09654436035156,14.0443869384766,-3.00711728515625
3.82331863169672,1.1109095703125,14.020444921875,-3.09809694824219
3.82542394430523,1.17794721679687,14.1162129882812,-3.15555778808594
3.82752925691375,1.149216796875,14.1066361816406,-3.27526787109375
3.82956653089377,1.16837041015625,14.2263462646484,-3.28005627441406
3.83160380487379,1.27850368652344,14.2119810546875,-3.31836350097656
3.83364107885382,1.35990654296875,14.2981723144531,-3.23696064453125
3.83567796503007,1.41257897949219,14.3460563476562,-3.42849677734375
3.83771485120633,1.51313544921875,14.3795751708984,-3.46680400390625
3.83975173738258,1.62805712890625,14.3364795410156,-3.4859576171875
3.84178871134092,1.73819040527344,14.4178823974609,-3.49553442382812
3.84382568529926,1.89141931152344,14.4035171875,-3.45722719726562
3.84586265925759,2.02549460449219,14.4705548339844,-3.53863005371094
3.84787301331577,2.10210905761719,14.3987287841797,-3.56736047363281
3.84988336737395,2.17872351074219,14.4035171875,-3.62960971679687
3.85189372143213,2.25054956054688,14.4753432373047,-3.73016618652344
3.85393412236529,2.25054956054688,14.4753432373047,-3.81635744628906
3.85597452329845,2.25533796386719,14.4322476074219,-3.88339509277344
3.85801492423161,2.29364519042969,14.5328040771484,-3.907337109375
3.86004420754322,2.31758720703125,14.5663229003906,-4.03662399902344
3.86207349085483,2.35110603027344,14.633360546875,-4.08450803222656
3.86410277416644,2.30322199707031,14.7147634033203,-4.18985290527344
3.86612873092641,2.21224233398438,14.8105314697266,-4.20421811523437
3.86815468768638,2.21703073730469,14.786589453125,-4.213794921875
3.87018064444635,2.15478149414062,14.939818359375,-4.13718046875
3.87220879700711,2.12126267089844,15.0403748291016,-4.19464130859375
3.87423694956787,2.07816704101562,15.0738936523437,-4.22337172851562
3.87626510212863,2.03507141113281,15.1936037353516,-4.39575424804687
3.87829582144832,1.94409174804687,15.3420442382812,-4.51546433105469
3.88032654076801,1.88663090820312,15.5096383544922,-4.69742365722656
3.8823572600877,1.89141931152344,15.5814644042969,-4.83628735351562
3.88453190309989,1.75255561523437,15.78257734375,-4.91769020996094
3.88670654611209,1.72861359863281,15.9453830566406,-5.01345827636719
3.88888118912428,1.68072956542969,16.0746699462891,-5.14753356933594
3.89105711837768,1.64242233886719,16.2135336425781,-5.16189877929687
3.89323304763108,1.56101948242187,16.3428205322266,-5.33428129882812
3.89540897688448,1.44609780273437,16.3907045654297,-5.24330163574219
3.89758501844267,1.4939818359375,16.5870291015625,-5.29597407226562
3.89976106000086,1.42694418945312,16.7258927978516,-5.34385810546875
3.90193710155904,1.39821376953125,16.8934869140625,-5.41089575195312
3.9040828652852,1.42694418945312,16.9748897705078,-5.52102902832031
3.90622862901137,1.47482822265625,17.1185418701172,-5.64073911132812
3.90837439273753,1.43173259277344,17.2909243896484,-5.83706364746094
3.91048990716896,1.44130939941406,17.4202112792969,-5.77481440429687
3.91260542160038,1.45088620605469,17.6165358154297,-5.84664045410156
3.91472093603181,1.50355864257812,17.7123038818359,-5.95198532714844
3.91683637277223,1.51313544921875,17.7553995117187,-5.94719692382813
3.91895180951265,1.58017309570312,17.9421472412109,-5.85142885742187
3.92106724625307,1.61369191894531,17.9948196777344,-5.97592734375
3.92753534586234,1.52750065917969,19.2158625244141,-5.51145222167969
3.9340034454716,1.45088620605469,19.2972653808594,-5.52581743164062
3.94047154508087,1.4173673828125,19.3020537841797,-5.60722028808594
3.94258381157393,1.40300217285156,19.4840131103516,-5.56891306152344
3.94469607806699,1.36469494628906,19.6180884033203,-5.57848986816406
3.94680834456005,1.31681091308594,19.8192013427734,-5.4779333984375
3.94891924386559,1.30723410644531,19.9389114257812,-5.23851323242187
3.95103014317112,1.53707746582031,19.9676418457031,-5.09964953613281
3.95314104247666,1.4173673828125,20.3124068847656,-5.05655390625
3.95525231200793,2.29843359375,20.9492645263672,-5.16189877929687
3.9573635815392,3.51947644042969,22.5533796386719,-5.69819995117187
3.95947485107047,0.0622492431640625,18.6460425292969,-6.78995590820312
3.9615862046946,-0.301669409179687,19.7952593261719,-4.84107575683594
3.96369755831874,0.928950244140625,21.3083947753906,-4.55377155761719
3.96580891194287,1.43173259277344,21.3371251953125,-5.30076247558594
3.96798932665642,1.608903515625,21.5190845214844,-5.69341154785156
3.97016974136996,1.85311208496094,22.0841161132812,-5.78917961425781
3.97235015608351,2.38462485351562,22.9747591308594,-5.96156213378906
3.97446529898718,2.15478149414062,22.9987011474609,-6.67982263183594
3.97658044189086,1.09654436035156,22.3762087158203,-6.80432111816406
3.97869558479454,0.972045874023437,23.0370083740234,-6.22971271972656
3.98081102674333,1.41257897949219,23.7361152587891,-5.98550415039062
3.98292646869212,1.79086284179687,24.1000339111328,-6.38294162597656
3.98504191064092,2.05422502441406,24.4735293701172,-6.57926616210937
3.98715779866169,2.17872351074219,24.8230828125,-6.7037646484375
3.98927368668247,2.28406838378906,25.3067115478516,-7.11077893066406
3.99138957470325,2.36547124023437,25.6371113769531,-7.33104548339844
3.99350514979009,2.12605107421875,25.7233026367187,-7.64229169921875
3.99562072487693,1.88663090820312,25.7328794433594,-7.64708010253906
3.99773629996378,1.81480485839844,26.0824328857422,-7.584830859375
3.99999467235955,1.96803376464844,26.6618296875,-7.81946262207031
4.00225304475532,2.12605107421875,27.0544787597656,-8.14028564453125
4.00451141715109,2.26491477050781,27.3417829589844,-8.504204296875
4.00670106623969,2.37983645019531,27.4423394287109,-8.56166513671875
4.0088907153283,2.57137258300781,27.6290871582031,-8.64306799316406
4.0110803644169,2.68629426269531,27.811046484375,-8.43237824707031
4.01326993744203,2.681505859375,27.8924493408203,-8.49462749023438
4.01545951046717,2.7964275390625,28.0265246337891,-8.48505068359375
4.0176490834923,2.84431157226562,28.117504296875,-8.44674345703125
4.01983903477264,2.94007963867187,27.9211797607422,-8.60954916992188
4.02202898605299,2.93529123535156,27.9163913574219,-8.31745656738281
4.02421893733333,2.97359846191406,27.7009132080078,-8.06845959472656
4.02640872259807,3.0262708984375,27.5620495117187,-7.83861623535156
4.02859850786281,2.95444484863281,27.3178409423828,-7.53215842285156
4.03078829312756,2.82515795898437,27.3178409423828,-7.28794985351562
4.03297832383506,2.7581203125,27.1885540527344,-7.00543405761719
4.03516835454256,2.82515795898437,27.0065947265625,-6.742071875
4.03735838525006,2.90177241210937,26.6043688476563,-6.27759675292969
4.03947807633074,2.99275207519531,26.3888906982422,-5.94719692382813
4.04159776741142,3.01190568847656,26.1734125488281,-5.46356818847656
4.0437174584921,3.19865341796875,25.9531459960937,-5.23372482910156
4.04911587816989,4.22337172851562,22.3809971191406,-1.48440502929687
4.05451429784769,4.23294853515625,21.8830031738281,-1.21146604003906
4.05991271752549,4.38617744140625,21.5334497314453,-1.01992990722656
4.06209156550727,4.52504113769531,21.0354557861328,-0.684741674804688
4.06427041348906,4.37660063476562,20.5230966308594,-0.718260498046875
4.06644926147084,4.11802685546875,20.0681983154297,-0.59376201171875
4.06859596611489,3.91212551269531,19.3882450439453,-0.488417138671875
4.07074267075895,3.78283862304687,18.7944830322266,-0.627280834960937
4.07288937540301,3.6391865234375,18.1288949707031,-0.0047884033203125
4.07500349600849,3.4093431640625,17.4585185058594,-0.028730419921875
4.07711761661398,3.63439812011719,16.5104146484375,0.617704028320312
4.07923173721946,3.3710359375,15.6101948242187,0.761356127929687
4.08138029554192,3.03584770507812,14.6525141601562,0.588973608398437
4.08352885386438,2.8730419921875,13.4937205566406,1.42215578613281
4.08567741218684,2.60967980957031,12.5743471191406,0.770932934570312
4.08778874345855,2.25054956054688,11.5161099853516,1.47482822265625
4.08990007473026,1.85311208496094,10.26633671875,1.40300217285156
4.09201140600197,1.38863696289062,9.29907924804687,1.33117612304687
4.09412210207402,1.04866032714844,8.32224497070312,1.52271225585937
4.09623279814607,0.723048901367187,7.41244833984375,1.52750065917969
4.09834349421811,0.474051928710937,6.60320817871094,1.98239897460937
4.10052726662478,0.239420166015625,5.81791003417969,2.0302830078125
4.10271103903144,0.167594116210937,5.25287844238281,2.64798703613281
4.1048948114381,0.148440502929687,4.72615407714844,3.4859576171875
4.10708304939387,0.201112939453125,3.96479794921875,3.97437475585937
4.10927128734964,0.17238251953125,4.04620080566406,4.52982954101562
4.11145952530541,0.143652099609375,3.10767375488281,4.84107575683594
4.11364863158798,0.579396801757812,1.17794721679687,5.15711037597656
4.11583773787055,0.833182177734375,0.24899697265625,4.68305844726562
4.11802684415312,0.967257470703125,-0.512359155273437,4.96078583984375
4.12020546587983,0.723048901367187,-2.76769711914062,5.69819995117187
4.12238408760654,1.09175595703125,-3.74931979980469,6.19619389648437
4.12456270933325,0.761356127929687,-5.64552751464844,6.94797321777344
4.12669655700762,0.9193734375,-6.70855305175781,7.0102224609375
4.12883040468199,1.03908352050781,-7.891288671875,7.6231380859375
4.13096425235636,0.866701000976562,-9.5384994140625,8.16901606445312
4.13308671405341,0.36391865234375,-11.1617681396484,8.94952580566406
4.13520917575047,-0.292092602539062,-12.5743471191406,8.89685336914062
4.13733163744752,-0.488417138671875,-14.6142069335937,10.4147772216797
4.13945350360422,-0.430956298828125,-14.8057430664062,9.82580361328125
4.14157536976091,-0.55545478515625,-16.4242233886719,11.7746837646484
4.14369723591761,-0.430956298828125,-16.2901480957031,12.3205617431641
4.1469565035229,0.857124194335937,-16.4098581787109,14.9541835693359
4.15021577112818,0.890643017578125,-14.9589719726562,15.8639802001953
4.15347503873346,0.541089575195312,-13.4793553466797,16.1129771728516
4.15565774793487,0.148440502929687,-12.3205617431641,16.2039568359375
4.15784045713627,-0.32561142578125,-11.1474029296875,15.7538469238281
4.16002316633768,-0.354341845703125,-9.63905588378906,14.9302415527344
4.16213570214501,0.143652099609375,-7.6614453125,13.7331407226563
4.16424823795234,0.905008227539062,-5.76523759765625,12.0619879638672
4.16636077375966,1.71903679199219,-3.97916315917969,10.3237975585937
4.16847562825188,2.37025964355469,-2.44687409667969,8.68616362304688
4.1705904827441,2.6431986328125,-1.07260234375,7.40765993652344
4.17270533723632,2.76769711914062,0.148440502929687,6.14830986328125
4.17488683701934,2.62404501953125,1.22583125,5.14274516601562
4.17706833680235,2.4899697265625,2.07337863769531,4.60644399414062
4.17924983658537,2.4133552734375,2.84909997558594,4.24252534179687
4.1814323632781,2.59531459960937,3.50032282714844,3.97916315917969
4.18361488997082,2.47081611328125,3.9839515625,3.83551105957031
4.18579741666355,2.27927998046875,4.00789357910156,3.5625720703125
4.1879800591332,2.12126267089844,3.53384165039062,3.61524450683594
4.19016270160286,2.10210905761719,2.75333190917969,3.84987626953125
4.19234534407252,1.98718737792969,2.25533796386719,3.92170231933594
4.19445988161592,1.83395847167969,2.20745393066406,3.82593425292969
4.19657441915931,1.75255561523437,2.58094938964844,3.77326181640625
4.19868895670271,1.77649763183594,3.03105930175781,3.58651408691406
4.20079905555256,1.81959326171875,3.600879296875,3.08852014160156
4.20290915440241,1.82438166503906,4.07014282226563,3.4093431640625
4.20501925325226,1.90578452148437,4.59207878417969,2.51870014648437
4.20719817686334,1.84832368164062,5.24330163574219,2.31279880371094
4.20937710047442,1.71424838867187,5.20499440917969,2.068590234375
4.2115560240855,1.79086284179687,5.44920297851562,1.79086284179687
4.21373529774002,1.70467158203125,5.00866987304688,2.16435830078125
4.21591457139453,1.74776721191406,4.98951625976563,1.51792385253906
4.21809384504905,1.92972653808594,4.62559760742187,1.99676418457031
4.22027297797003,1.7238251953125,3.6391865234375,1.19710083007812
4.22245211089101,2.03985981445312,4.45321508789062,0.636857641601562
4.22463124381198,2.22660754394531,4.47715710449219,0.761356127929687
4.2267459532304,2.15956989746094,4.42927307128906,0.641646044921875
4.22886066264882,1.85311208496094,4.64475122070312,0.426167895507812
4.23097537206723,1.57538469238281,4.63996281738281,0.076614453125
4.23308945474959,1.25456166992187,4.43884987792969,-0.63206923828125
4.23520353743195,0.761356127929687,3.99831677246094,-1.46525141601562
4.23731762011431,0.158017309570312,3.52426484375,-2.28885678710938
4.2395021330266,-0.646434448242187,3.06936652832031,-3.06936652832031
4.24168664593888,-1.37427175292969,2.58573779296875,-3.90254870605469
4.24387115885116,-1.94888015136719,1.82917006835937,-4.77403811035156
4.24605452668968,-2.26491477050781,1.12048637695313,-5.54497104492187
4.24823789452821,-2.73417829589844,0.770932934570312,-6.15788666992187
4.25042126236673,-3.27526787109375,0.995987890625,-6.61757338867187
4.25260250759241,-3.47638081054687,1.14442839355469,-7.18739338378906
4.25478375281809,-3.294421484375,0.90021982421875,-7.73327136230469
4.25696499804377,-2.91613762207031,0.44053310546875,-8.25041892089844
4.25908037174166,-2.26970317382813,-0.28730419921875,-8.95910261230469
4.26119574543954,-1.84353527832031,-0.78529814453125,-9.41878933105469
4.26331111913743,-1.75255561523437,-1.12048637695313,-9.68215151367187
4.2654253376704,-1.99676418457031,-1.46046301269531,-9.80186159667969
4.26753955620338,-2.44687409667969,-1.52271225585937,-10.0748005859375
4.26965377473635,-2.58573779296875,-1.55144267578125,-10.4674496582031
4.27183829339953,-2.55700737304687,-1.36469494628906,-10.5105452880859
4.2740228120627,-2.41814367675781,-1.01035310058594,-10.0508585693359
4.27620733072587,-2.11168586425781,-0.694318481445312,-8.963891015625
4.27839604773974,-1.70467158203125,-0.507570751953125,-7.78115539550781
4.28058476475362,-1.24498486328125,-0.119710083007812,-6.61757338867187
4.28277348176749,-0.871489404296875,0.253785375976562,-5.439626171875
4.284962755205,-0.627280834960937,0.584185205078125,-4.35265861816406
4.2871520286425,-0.454898315429687,0.818816967773437,-3.26569106445312
4.28934130208,-0.2681505859375,1.01992990722656,-2.14999309082031
4.29138232844713,-0.282515795898438,1.14442839355469,-1.27371528320312
4.29342335481425,-0.330399829101562,1.33596452636719,-0.320823022460937
4.29546438118138,-0.215478149414062,2.23139594726563,2.8730419921875
4.29750474684979,-0.526724365234375,1.90099611816406,4.44363828125
4.2995451125182,-0.675164868164063,2.20745393066406,6.6271501953125
4.30158547818661,-0.450109912109375,2.67192905273437,8.03972917480469
4.30368991156333,0.0239420166015625,3.05500131835937,9.34217487792969
4.30579434494005,0.430956298828125,3.19865341796875,10.3046439453125
4.30789877831677,0.876277807617187,3.35667072753906,11.7028577148437
4.31000351063015,1.17794721679687,3.3327287109375,12.7802484619141
4.31210824294353,1.39821376953125,2.93050283203125,13.1537439208984
4.31421297525691,1.4173673828125,2.61925661621094,12.9717845947266
4.31631748382898,1.2641384765625,1.69030637207031,12.2247936767578
4.31842199240106,1.10133276367187,1.13485158691406,11.0851536865234
4.32052650097313,1.03908352050781,0.761356127929687,9.6917283203125
4.32270403710593,0.991199487304687,0.469263525390625,8.1594392578125
4.32488157323873,1.02950671386719,0.119710083007812,6.58884296875
4.32705910937153,1.06302553710937,-0.138863696289063,5.04218869628906
4.32923782964067,1.08217915039062,-0.32561142578125,3.69664736328125
4.3314165499098,0.948103857421875,-0.608127221679687,2.58573779296875
4.33359527017893,0.90021982421875,-0.732625708007812,1.59453830566406
4.33575010135567,0.732625708007812,-0.842758984375,1.0342951171875
4.33790493253241,0.588973608398437,-0.837970581054687,0.560243188476563
4.34005976370915,0.474051928710937,-0.74699091796875,0.143652099609375
4.34218312347743,0.383072265625,-0.521935961914062,-0.09576806640625
4.34430648324571,0.36391865234375,-0.1915361328125,-0.3064578125
4.34642984301399,0.335188232421875,0.0814028564453125,-0.397437475585937
4.34854319365419,0.354341845703125,0.407014282226562,-0.44053310546875
4.35065654429438,0.435744702148437,0.732625708007812,-0.45968671875
4.35276989493457,0.469263525390625,0.914585034179687,-0.416591088867187
4.35488034046409,0.507570751953125,1.14442839355469,-0.335188232421875
4.35699078599362,0.5746083984375,1.27371528320312,-0.239420166015625
4.35910123152314,0.541089575195312,1.3407529296875,-0.067037646484375
4.36121087377573,0.507570751953125,1.45088620605469,0.0383072265625
4.36332051602831,0.387860668945312,1.4939818359375,0.0622492431640625
4.3654301582809,0.32561142578125,1.56580788574219,0.181959326171875
4.3676062498065,0.1915361328125,1.59932670898438,0.239420166015625
4.3697823413321,0.0622492431640625,1.5705962890625,0.263362182617187
4.3719584328577,-0.0335188232421875,1.48440502929687,0.392649072265625
4.37406418774049,-0.105344873046875,1.38384855957031,0.426167895507812
4.37616994262328,-0.21068974609375,1.1875240234375,0.560243188476563
4.37827569750607,-0.277727392578125,1.12048637695313,0.63206923828125
4.38030975002338,-0.292092602539062,1.08217915039062,0.794874951171875
4.38234380254069,-0.373495458984375,0.986411083984375,0.751779321289062
4.38437785505801,-0.397437475585937,0.780509741210937,0.933738647460937
4.38641149145125,-0.397437475585937,0.541089575195312,1.08217915039062
4.3884451278445,-0.411802685546875,0.4213794921875,1.149216796875
4.39047876423774,-0.383072265625,0.368707055664062,1.13485158691406
4.39251227910321,-0.3064578125,0.186747729492187,1.27850368652344
4.39454579396867,-0.430956298828125,-0.028730419921875,1.28808049316406
4.39657930883413,-0.407014282226562,-0.196324536132812,1.04866032714844
4.39861354993658,-0.387860668945312,-0.354341845703125,1.15400520019531
4.40064779103902,-0.430956298828125,-0.47884033203125,0.986411083984375
4.40268203214146,-0.392649072265625,-0.531512768554687,1.07260234375
4.40478455194398,-0.45968671875,-0.622492431640625,1.13485158691406
4.4068870717465,-0.493205541992187,-0.713472094726562,0.847547387695312
4.40898959154902,-0.4979939453125,-0.76614453125,0.9576806640625
4.4110858897803,-0.579396801757812,-0.8810662109375,1.04387192382812
4.41318218801158,-0.70868369140625,-1.00556469726562,0.97683427734375
4.41527848624287,-0.761356127929687,-1.13485158691406,1.12527478027344
4.41734916305487,-0.82360537109375,-1.24019645996094,0.905008227539062
4.41941983986688,-0.790086547851562,-1.15400520019531,0.78529814453125
4.42149051667889,-0.761356127929687,-1.24977326660156,0.770932934570312
4.42353469501002,-0.742202514648437,-1.35511813964844,0.636857641601562
4.42557887334116,-0.770932934570312,-1.38384855957031,0.622492431640625
4.4276230516723,-0.76614453125,-1.32638771972656,0.584185205078125
4.42980918616665,-0.737414111328125,-1.24498486328125,0.536301171875
4.43199532066099,-0.780509741210937,-1.29286889648437,0.4979939453125
4.43418145515534,-0.689530078125,-1.27371528320312,0.450109912109375
4.43636822756199,-0.646434448242187,-1.31202250976562,0.469263525390625
4.43855499996865,-0.641646044921875,-1.29765729980469,0.435744702148437
4.4407417723753,-0.584185205078125,-1.36948334960938,0.368707055664062
4.44292850137917,-0.51714755859375,-1.40779057617187,0.435744702148437
4.44511523038303,-0.44053310546875,-1.43652099609375,0.292092602539062
4.44730195938689,-0.368707055664062,-1.44130939941406,0.292092602539062
4.44948962035691,-0.292092602539062,-1.39342536621094,0.3064578125
4.45167728132693,-0.229843359375,-1.17315881347656,0.2681505859375
4.45386494229695,-0.24899697265625,-1.08696755371094,0.277727392578125
4.45601880053258,-0.186747729492187,-0.962469067382812,0.32561142578125
4.45817265876822,-0.100556469726563,-0.837970581054687,0.383072265625
4.46032651700386,-0.0718260498046875,-0.837970581054687,0.40222587890625
4.46244585044572,-0.0909796630859375,-0.842758984375,0.383072265625
4.46456518388758,-0.0239420166015625,-0.59376201171875,0.483628735351562
4.46668451732944,-0.076614453125,-0.598550415039062,0.636857641601562
4.4688043394323,-0.0383072265625,-0.5746083984375,0.59376201171875
4.47092416153517,-0.0239420166015625,-0.426167895507812,0.612915625
4.47304398363804,-0.05746083984375,-0.359130249023437,0.430956298828125
4.47844812971548,0.143652099609375,0.55545478515625,-0.526724365234375
4.48385227579293,0.292092602539062,0.972045874023437,-0.703895288085937
4.48925642187038,0.234631762695312,0.986411083984375,-0.656011254882812
4.49136953059434,0.426167895507812,1.15879360351562,-0.70868369140625
4.4934826393183,0.488417138671875,1.37427175292969,-0.890643017578125
4.49559574804226,0.55545478515625,1.36469494628906,-0.97683427734375
4.49763208528185,0.608127221679687,1.455674609375,-1.07260234375
4.49966842252144,0.584185205078125,1.45088620605469,-1.17794721679687
4.50170475976103,0.598550415039062,1.32638771972656,-1.25456166992187
4.50374017176188,0.579396801757812,1.42215578613281,-1.40779057617187
4.50577558376273,0.55545478515625,1.34554133300781,-1.38384855957031
4.50781099576358,0.512359155273437,1.29286889648437,-1.33117612304687
4.50984631347188,0.4979939453125,1.19231242675781,-1.28808049316406
4.51188163118019,0.474051928710937,1.18273562011719,-1.17794721679687
4.51391694888849,0.502782348632812,1.13485158691406,-1.02950671386719
4.51601964658818,0.445321508789062,1.06781394042969,-0.871489404296875
4.51812234428786,0.474051928710937,0.952892260742187,-0.665588061523437
4.52022504198754,0.454898315429687,0.933738647460937,-0.531512768554687
4.5222564878426,0.474051928710937,0.914585034179687,-0.316034619140625
4.52428793369766,0.4979939453125,0.842758984375,-0.124498486328125
4.52631937955272,0.541089575195312,0.837970581054687,0.162805712890625
4.52842520583308,0.536301171875,0.78529814453125,0.411802685546875
4.53053103211344,0.545877978515625,0.699106884765625,0.6512228515625
4.5326368583938,0.598550415039062,0.6512228515625,0.885854614257812
4.53474407992429,0.579396801757812,0.579396801757812,1.1109095703125
4.53685130145478,0.627280834960937,0.4213794921875,1.35511813964844
4.53895852298527,0.627280834960937,0.253785375976562,1.60411511230469
4.54106639539469,0.627280834960937,0.138863696289063,1.96803376464844
4.54317426780412,0.6512228515625,-0.0335188232421875,2.17393510742187
4.54528214021354,0.737414111328125,-0.15322890625,2.39420166015625
4.5473922473099,0.814028564453125,-0.205901342773437,2.68629426269531
4.54950235440625,0.857124194335937,-0.359130249023437,2.93050283203125
4.5516124615026,0.933738647460937,-0.430956298828125,3.32794030761719
4.55372276705816,0.933738647460937,-0.550666381835937,3.58651408691406
4.55583307261372,0.986411083984375,-0.541089575195312,3.96479794921875
4.55794337816928,1.05823713378906,-0.526724365234375,4.28562097167969
4.56005361319535,1.10612116699219,-0.531512768554687,4.62080920410156
4.56216384822142,1.14442839355469,-0.560243188476563,5.05655390625
4.56427408324748,1.14442839355469,-0.627280834960937,5.26724365234375
4.56856226488806,0.665588061523437,-1.71903679199219,4.31913979492187
4.57285044652864,0.665588061523437,-1.69988317871094,4.22337172851562
4.57713862816922,0.814028564453125,-1.59453830566406,4.01268198242188
4.57925352595566,0.866701000976562,-1.58017309570312,3.7158009765625
4.58136842374211,1.12527478027344,-1.55623107910156,3.39976635742187
4.58348332152855,1.25935007324219,-1.51313544921875,3.15076938476562
4.58559858292176,1.32159931640625,-1.32159931640625,2.92571442871094
4.58771384431498,1.38863696289062,-0.799663354492188,3.01669409179687
4.58982910570819,1.73340200195312,0.162805712890625,3.75889660644531
4.59194590464483,2.51391174316406,1.60411511230469,5.57848986816406
4.59406270358147,3.29920988769531,3.24653745117187,7.4699091796875
4.59617950251811,3.49074602050781,3.97437475585937,7.61834968261719
4.59832492867914,3.44286198730469,4.39096584472656,7.21612380371094
4.60047035484016,4.0988732421875,5.99986936035156,8.36055219726562
4.60261578100119,5.4013189453125,9.11233151855469,10.3237975585937
4.60472483227071,5.31991608886719,9.98382092285156,10.3046439453125
4.60683388354024,9.04050546875,9.1554271484375,10.3621047851562
4.60894293480976,21.1024934326172,13.6708914794922,10.1035310058594
4.61105106789356,12.0524111572266,18.5119672363281,5.35822331542969
4.61315920097737,4.45321508789062,16.0555163330078,1.55623107910156
4.61526733406117,1.71903679199219,14.4083055908203,0.296881005859375
4.61737510869223,-0.387860668945312,18.6412541259766,0.565031591796875
4.6194828833233,-1.78607443847656,25.4551520507812,1.32638771972656
4.62159065795436,-3.09330854492187,31.7997864501953,2.55700737304687
4.62370017195174,-3.18428820800781,36.0997726318359,2.62883342285156
4.62580968594913,-5.02303508300781,38.5274931152344,-0.488417138671875
4.62791919994652,-6.18182868652344,37.7852906005859,-5.80833322753906
4.6300315763029,0.454898315429687,37.1963169921875,-8.8489693359375
4.63214395265929,1.149216796875,36.5163637207031,-11.0660000732422
4.63425632901567,0.679953271484375,35.0606891113281,-11.4203419189453
4.63639885516587,-1.16358200683594,33.1596929931641,-10.1849338623047
4.63854138131607,-3.34230551757812,31.6896531738281,-11.1138841064453
4.64068390746627,-3.19865341796875,36.2625783447266,-17.4537301025391
4.64279186645066,-1.37906015625,42.5258098876953,-23.4296574462891
4.64489982543504,2.57137258300781,50.6948259521484,-28.4095968994141
4.64700778441943,6.18182868652344,57.2405732910156,-32.3408760253906
4.64911354120109,8.3126681640625,60.1854413330078,-38.383841015625
4.65121929798276,6.86657036132813,60.1327688964844,-42.1427376220703
4.65332505476442,4.42927307128906,56.0722028808594,-39.0685826904297
4.65543086883777,3.8690298828125,49.6222236083984,-31.3017925048828
4.65753668291112,4.86980617675781,44.8721275146484,-20.5518270507812
4.65964249698447,6.32548078613281,42.3438505615234,-8.00142194824219
4.66174837675877,7.37414111328125,41.2473062011719,1.17794721679687
4.66385425653308,8.82981572265625,40.7253702392578,6.67503422851562
4.66596013630738,10.5057568847656,41.5777060302734,10.2136642822266
4.66810248786991,12.3301385498047,41.9176826660156,12.488155859375
4.67024483943245,13.4506249267578,40.5051036865234,12.6222311523437
4.67238719099498,14.9924907958984,36.8946475830078,10.8074262939453
4.67449716321721,16.6301247314453,30.4111494873047,7.18260498046875
4.67660713543944,16.2183220458984,23.9611702148437,5.59764348144531
4.67871710766167,14.6285721435547,19.8383549560547,4.34308181152344
4.68082793860784,11.9662198974609,16.6971623779297,2.69108266601562
4.68293876955401,8.69095202636719,14.9015111328125,0.93852705078125
4.68504960050018,5.25766684570312,15.0116444091797,-2.71502468261719
4.6871592638031,1.76692082519531,16.4816842285156,-6.25365473632812
4.68926892710601,-1.61369191894531,18.5502744628906,-7.93438430175781
4.69137859040893,-3.74453139648437,20.7481515869141,-9.18415756835937
4.69348586585382,-5.14274516601562,22.2325566162109,-11.0516348632812
4.69559314129871,-5.97592734375,23.1902372802734,-12.6557499755859
4.6977004167436,-6.41646044921875,23.5589443359375,-13.6804682861328
4.69980406653739,-6.34942280273437,23.8749789550781,-14.4226708007812
4.70190771633118,-6.052541796875,23.5302139160156,-14.9877023925781
4.70401136612497,-5.56891306152344,22.9508171142578,-15.5766760009766
4.70604525712978,-4.64475122070312,23.5062718994141,-16.0938235595703
4.70807914813459,-4.46758029785156,23.1567184570312,-16.3667625488281
4.7101130391394,-4.37181223144531,22.5916868652344,-16.0315743164062
4.71214652264632,-4.36223542480469,21.8925799804687,-15.2414877685547
4.71418000615324,-4.05577761230469,21.4712004882812,-14.2263462646484
4.71621348966016,-3.6391865234375,21.0833398193359,-13.2830308105469
4.71824696616837,-3.38061274414062,20.9588413330078,-12.1912748535156
4.72028044267658,-3.09330854492187,21.1216470458984,-11.3102086425781
4.72231391918478,-2.65756384277344,21.3131831787109,-10.4866032714844
4.72434798439743,-2.29364519042969,21.5765453613281,-9.87847604980469
4.72638204961008,-1.81001645507812,21.8590611572266,-9.59596025390625
4.72841611482272,-1.455674609375,22.2756522460937,-9.51455739746094
4.73059536780662,-1.09175595703125,22.3379014892578,-9.18415756835937
4.73277462079053,-0.588973608398437,22.2469218261719,-8.79629689941406
4.73495387377443,-0.201112939453125,22.0697509033203,-8.26478413085937
4.73712675396108,-0.215478149414062,21.5573917480469,-7.49863959960937
4.73929963414773,-0.215478149414062,20.9540529296875,-6.30153876953125
4.74147251433437,-0.416591088867187,20.226215625,-5.41568415527344
4.74361866212086,-0.569819995117188,19.4744363037109,-4.51546433105469
4.74576480990734,-0.258573779296875,18.6508309326172,-3.84029946289062
4.74791095769383,0.0,17.9660892578125,-3.53863005371094
4.75002993992042,0.311246215820312,17.1376954833984,-3.44286198730469
4.752148922147,0.507570751953125,16.2853596923828,-3.46201560058594
4.75426790437359,0.67037646484375,15.4856963378906,-3.28484467773437
4.75638251439962,0.723048901367187,14.9589719726562,-3.39497795410156
4.75849712442565,0.837970581054687,14.2885955078125,-3.3327287109375
4.76061173445169,0.952892260742187,13.7666595458984,-3.05021291503906
4.76272839211227,1.27850368652344,13.9390420654297,-3.42370837402344
4.76484504977285,1.5705962890625,13.8432739990234,-3.99831677246094
4.76696170743344,1.85311208496094,13.3883756835937,-4.41969626464844
4.76908009328417,2.09253225097656,12.9717845947266,-4.88417138671875
4.77119847913491,2.4133552734375,12.9239005615234,-5.61679709472656
4.77331686498565,2.71502468261719,13.0148802246094,-6.36857641601562
4.77864732185424,3.22738383789062,14.5711113037109,-9.20809958496094
4.78397777872283,2.73417829589844,14.6285721435547,-9.26556042480469
4.78930823559142,2.33195241699219,14.6142069335937,-9.28471403808594
4.79141232185441,1.94888015136719,14.4561896240234,-9.33259807128906
4.7935164081174,1.58017309570312,14.2215578613281,-9.25598361816406
4.79562049438039,1.12048637695313,13.7953899658203,-8.91121857910156
4.79772333520066,0.8810662109375,13.2351467773437,-8.66222160644531
4.79982617602093,0.828393774414062,12.7994020751953,-8.03015236816406
4.8019290168412,0.828393774414062,12.3061965332031,-7.59440766601562
4.80403111026571,0.8044517578125,11.7363765380859,-6.82826313476562
4.80613320369021,0.794874951171875,11.0372696533203,-6.12915625
4.80823529711472,0.660799658203125,10.4818148681641,-5.50187541503906
4.81033998526576,0.493205541992187,9.93114848632812,-4.86980617675781
4.81244467341681,0.392649072265625,9.53371101074219,-4.18506450195312
4.81454936156786,0.229843359375,9.06923588867187,-3.68707055664062
4.81658087751843,0.0430956298828125,8.58081875,-3.17471140136719
4.818612393469,-0.0335188232421875,7.98705673828125,-2.73417829589844
4.82064390941957,-0.13407529296875,7.52258161621094,-2.26491477050781
4.82267487231013,-0.205901342773437,7.00543405761719,-1.89141931152344
4.82470583520069,-0.258573779296875,6.42124885253906,-1.46046301269531
4.82673679809125,-0.28730419921875,5.95198532714844,-1.11569797363281
4.82876697343852,-0.296881005859375,5.43483776855469,-0.646434448242187
4.83079714878579,-0.282515795898438,5.08528432617187,-0.162805712890625
4.83282732413306,-0.225054956054687,4.67827004394531,0.373495458984375
4.83485707011835,-0.0622492431640625,4.40054265136719,0.8044517578125
4.83688681610363,0.086191259765625,4.02704719238281,1.27850368652344
4.83891656208891,0.263362182617187,3.80199223632812,1.64242233886719
4.84094681013573,0.445321508789062,3.63439812011719,1.95845695800781
4.84297705818256,0.598550415039062,3.4859576171875,2.1835119140625
4.84500730622938,0.866701000976562,3.45722719726562,2.20745393066406
4.84710718263996,1.02950671386719,3.45243879394531,2.23139594726563
4.84920705905055,1.20188923339844,3.46201560058594,2.15956989746094
4.85130693546114,1.39821376953125,3.50032282714844,1.99197578125
4.85340852953667,1.58496149902344,3.52426484375,1.79086284179687
4.85551012361221,1.71424838867187,3.58172568359375,1.63284553222656
4.85761171768775,1.84353527832031,3.7158009765625,1.36948334960938
4.85968952770566,1.99676418457031,3.95043273925781,1.13485158691406
4.86176733772358,2.11168586425781,4.18506450195312,0.895431420898437
4.8638451477415,2.23139594726563,4.46279189453125,0.737414111328125
4.86589117840826,2.32237561035156,4.77882651367187,0.627280834960937
4.86793720907501,2.37025964355469,5.01345827636719,0.507570751953125
4.86998323974177,2.36547124023437,5.26245524902344,0.354341845703125
4.87202156347217,2.38462485351562,5.51145222167969,0.1915361328125
4.87405988720258,2.38462485351562,5.77481440429687,0.129286889648437
4.87609821093298,2.28885678710938,6.14830986328125,0.0239420166015625
4.87820596999334,2.27927998046875,6.45476767578125,-0.110133276367187
4.8803137290537,2.17872351074219,6.74686027832031,-0.186747729492187
4.88242148811406,2.08774384765625,6.92403120117187,-0.32561142578125
4.88453333430544,1.99197578125,7.19218178710937,-0.373495458984375
4.88664518049683,1.81480485839844,7.42681354980469,-0.521935961914062
4.88875702668821,1.65678754882812,7.60398447265625,-0.584185205078125
4.89083295849163,1.55144267578125,7.86255825195312,-0.59376201171875
4.89290889029506,1.39342536621094,8.09240161132812,-0.59376201171875
4.89498482209848,1.29286889648437,8.30787976074219,-0.507570751953125
4.89702584439667,1.17315881347656,8.46110866699219,-0.550666381835937
4.89906686669487,1.10612116699219,8.66222160644531,-0.469263525390625
4.90110788899307,1.04387192382812,8.83460412597656,-0.4979939453125
4.90314917067711,0.981622680664062,8.95910261230469,-0.521935961914062
4.90519045236114,0.890643017578125,9.06444748535156,-0.445321508789062
4.90723173404518,0.790086547851562,9.117119921875,-0.430956298828125
4.90929997395402,0.7278373046875,9.18415756835937,-0.335188232421875
4.91136821386285,0.636857641601562,9.15063874511719,-0.316034619140625
4.91343645377168,0.584185205078125,9.09317790527344,-0.330399829101562
4.91546653195096,0.483628735351562,8.95431420898437,-0.383072265625
4.91749661013025,0.387860668945312,8.89685336914062,-0.359130249023437
4.91952668830953,0.32561142578125,8.80587370605469,-0.354341845703125
4.92155384841148,0.339976635742188,8.71489404296875,-0.330399829101562
4.92358100851343,0.316034619140625,8.65264479980469,-0.253785375976562
4.92560816861538,0.311246215820312,8.58560715332031,-0.129286889648437
4.92763443006286,0.301669409179687,8.39407102050781,-0.0239420166015625
4.92966069151034,0.316034619140625,8.2743609375,0.100556469726563
4.93168695295782,0.339976635742188,8.14507404785156,0.158017309570312
4.93371629253032,0.349553442382812,8.06367119140625,0.32561142578125
4.93574563210281,0.320823022460937,7.93917270507812,0.373495458984375
4.93777497167531,0.40222587890625,7.88650026855469,0.40222587890625
4.93987125531246,0.445321508789062,7.81467421875,0.450109912109375
4.94196753894962,0.526724365234375,7.68059892578125,0.51714755859375
4.94406382258677,0.627280834960937,7.6231380859375,0.44053310546875
4.94623723561849,0.732625708007812,7.52737001953125,0.426167895507812
4.94841064865021,0.794874951171875,7.51779321289062,0.397437475585937
4.95058406168192,0.8810662109375,7.431601953125,0.373495458984375
4.95274313039391,0.952892260742187,7.50821640625,0.3447650390625
4.9549021991059,1.07739074707031,7.53215842285156,0.378283862304687
4.95706126781789,1.03908352050781,7.58004245605469,0.378283862304687
4.95917441441071,1.09175595703125,7.56567724609375,0.301669409179687
4.96128756100353,1.21146604003906,7.6231380859375,0.373495458984375
4.96340070759635,1.33596452636719,7.66623371582031,0.359130249023437
4.96551331642875,1.37906015625,7.80988581542969,0.397437475585937
4.96762592526115,1.47003981933594,7.82903942871094,0.373495458984375
4.96973853409355,1.47003981933594,7.95353791503906,0.397437475585937
4.97185022918906,1.55623107910156,8.03972917480469,0.387860668945312
4.97396192428458,1.608903515625,8.17859287109375,0.430956298828125
4.97607361938009,1.71903679199219,8.25999572753906,0.430956298828125
4.97818189498766,1.73340200195312,8.3892826171875,0.368707055664062
4.98029017059523,1.84353527832031,8.4658970703125,0.320823022460937
4.98239844620281,1.88663090820312,8.51856950683594,0.24899697265625
4.98443943730526,1.97282216796875,8.62391437988281,0.186747729492187
4.98648042840771,2.01112939453125,8.74841286621094,0.119710083007812
4.98852141951016,2.03985981445312,8.83939252929687,0.124498486328125
4.9937368388081,2.25533796386719,9.71088193359375,-0.292092602539062
4.99895225810604,2.25054956054688,9.79707319335937,-0.430956298828125
5.00416767740398,2.26970317382813,9.80186159667969,-0.608127221679687
5.00627460085229,2.29364519042969,9.88805285644531,-0.775721337890625
5.0083815243006,2.31758720703125,10.0029745361328,-0.842758984375
5.01048844774891,2.3367408203125,10.036493359375,-0.9193734375
5.0125604910974,2.38941325683594,10.0269165527344,-1.00556469726562
5.01463253444588,2.38462485351562,10.0556469726563,-1.21625444335937
5.01670457779437,2.4133552734375,10.0939541992188,-1.24019645996094
5.01874126540292,2.39899006347656,10.1322614257812,-1.31681091308594
5.02077795301147,2.37025964355469,10.2088758789062,-1.32638771972656
5.02281464062003,2.3367408203125,10.2423947021484,-1.35511813964844
5.0248510803987,2.30322199707031,10.3381627685547,-1.36469494628906
5.02688752017737,2.31279880371094,10.3908352050781,-1.38863696289062
5.02892395995605,2.28406838378906,10.3621047851562,-1.4173673828125
5.03103040499726,2.27927998046875,10.3621047851562,-1.43652099609375
5.03313685003847,2.25054956054688,10.3764699951172,-1.47003981933594
5.03524329507968,2.27449157714844,10.4530844482422,-1.58017309570312
5.03735390928322,2.21703073730469,10.4004120117187,-1.53707746582031
5.03946452348676,2.24576115722656,10.3094323486328,-1.50355864257812
5.0415751376903,2.22660754394531,10.2567599121094,-1.43652099609375
5.04365129133612,2.221819140625,10.1274730224609,-1.43652099609375
5.04572744498194,2.15478149414062,10.0029745361328,-1.43173259277344
5.04780359862775,2.17393510742187,9.96466730957031,-1.45088620605469
5.04984479562211,2.11647426757812,9.98382092285156,-1.39342536621094
5.05188599261646,1.98718737792969,9.83059201660156,-1.42215578613281
5.05392718961082,1.88184250488281,9.74918916015625,-1.3407529296875
5.05596838725618,1.88663090820312,9.7683427734375,-1.302445703125
5.05800958490155,1.838746875,9.66778630371094,-1.25935007324219
5.06005078254691,1.77170922851562,9.66778630371094,-1.29765729980469
5.06215671521837,1.78607443847656,9.6151138671875,-1.20188923339844
5.06426264788983,1.75734401855469,9.56244143066406,-1.06781394042969
5.06636858056129,1.81959326171875,9.51455739746094,-0.962469067382812
5.06854957372533,1.79565124511719,9.35175168457031,-0.97683427734375
5.07073056688936,1.79565124511719,9.26556042480469,-0.909796630859375
5.0729115600534,1.84353527832031,9.25119521484375,-0.799663354492188
5.07505822259683,1.86747729492187,9.21288798828125,-0.814028564453125
5.07720488514027,1.90099611816406,9.1554271484375,-0.742202514648437
5.0793515476837,1.89620771484375,9.09796630859375,-0.718260498046875
5.08146070491027,1.90578452148437,9.04529387207031,-0.603338818359375
5.08356986213683,1.90578452148437,9.01177504882812,-0.569819995117188
5.0856790193634,1.88184250488281,9.0021982421875,-0.598550415039062
5.08778573377314,1.84832368164062,8.94952580566406,-0.526724365234375
5.08989244818288,1.8770541015625,8.90164177246094,-0.488417138671875
5.09199916259263,1.90578452148437,8.86333454589844,-0.536301171875
5.09410536783351,1.92014973144531,8.80108530273437,-0.488417138671875
5.09621157307439,1.99197578125,8.85375773925781,-0.45968671875
5.09831777831528,2.02549460449219,8.93037219238281,-0.512359155273437
5.1004242733782,2.068590234375,8.93994899902344,-0.51714755859375
5.10253076844113,2.08774384765625,8.95910261230469,-0.5746083984375
5.10463726350406,2.09253225097656,9.03092866210937,-0.541089575195312
5.1098884530928,2.48039291992187,9.21288798828125,-0.842758984375
5.11513964268155,2.51391174316406,9.31344445800781,-0.924161840820312
5.12039083227029,2.61925661621094,9.3086560546875,-0.905008227539062
5.12249877747428,2.60489140625,9.32302126464844,-0.852335791015625
5.12460672267827,2.65277543945312,9.30386765136719,-0.837970581054687
5.12671466788225,2.6431986328125,9.33738647460937,-0.924161840820312
5.1287497205081,2.65756384277344,9.32780966796875,-0.914585034179687
5.13078477313394,2.65756384277344,9.31344445800781,-1.01514150390625
5.13281982575978,2.65756384277344,9.3086560546875,-1.12048637695313
5.13485391397594,2.7198130859375,9.41400092773437,-1.06781394042969
5.13688800219209,2.71023627929688,9.45709655761719,-1.13006318359375
5.13892209040824,2.66235224609375,9.44273134765625,-1.13485158691406
5.14095647799504,2.681505859375,9.50498059082031,-1.07260234375
5.14299086558183,2.60489140625,9.55286462402344,-1.19710083007812
5.14502525316863,2.54743056640625,9.61032546386719,-1.12048637695313
5.14713132858096,2.48518132324219,9.71088193359375,-1.13485158691406
5.14923740399329,2.49475812988281,9.77313117675781,-1.10133276367187
5.15134347940563,2.47560451660156,9.80186159667969,-1.07739074707031
5.15345016516955,2.42772048339844,9.84016882324219,-1.02950671386719
5.15555685093346,2.32716401367187,9.80665,-0.93852705078125
5.15766353669738,2.32237561035156,9.8449572265625,-0.8810662109375
5.15977015345082,2.29364519042969,9.9215716796875,-0.924161840820312
5.16187677020425,2.22660754394531,9.86411083984375,-0.995987890625
5.16398338695768,2.14999309082031,9.79707319335937,-0.97683427734375
5.16608999871981,2.1452046875,9.79707319335937,-0.972045874023437
5.16819661048193,2.12605107421875,9.80665,-1.00077629394531
5.17030322224406,2.16435830078125,9.77313117675781,-0.962469067382812
5.17234330904965,2.15956989746094,9.69651672363281,-1.08217915039062
5.17438339585523,2.09732065429687,9.68215151367187,-1.05344873046875
5.17642348266082,2.07337863769531,9.6151138671875,-1.06781394042969
5.17853174459657,2.04464821777344,9.58638344726563,-1.07260234375
5.18064000653231,2.10210905761719,9.54328781738281,-0.967257470703125
5.18274826846806,2.16914670410156,9.50498059082031,-1.02471831054687
5.18486146508263,2.21703073730469,9.52892260742187,-0.986411083984375
5.18697466169721,2.2601263671875,9.56244143066406,-0.914585034179687
5.18908785831178,2.27449157714844,9.57201823730469,-0.852335791015625
5.19120235983085,2.30322199707031,9.55286462402344,-0.76614453125
5.19331686134992,2.26491477050781,9.59596025390625,-0.612915625
5.19543136286899,2.19787712402344,9.63426748046875,-0.488417138671875
5.19754593448357,2.08295544433594,9.61032546386719,-0.272938989257812
5.19966050609816,1.94888015136719,9.60074865722656,-0.162805712890625
5.20177507771274,1.90578452148437,9.61990227050781,0.0143652099609375
5.20388951304257,1.84353527832031,9.5384994140625,0.067037646484375
5.20600394837241,1.75255561523437,9.50498059082031,0.0622492431640625
5.20811838370224,1.66636435546875,9.47146176757813,0.119710083007812
5.21022749025601,1.60411511230469,9.46667336425781,0.09576806640625
5.21233659680977,1.55144267578125,9.41400092773437,0.086191259765625
5.21444570336354,1.4939818359375,9.36132849121094,0.143652099609375
5.21655508736965,1.4173673828125,9.34696328125,0.01915361328125
5.21866447137576,1.41257897949219,9.270348828125,0.01915361328125
5.22077385538188,1.39821376953125,9.25598361816406,0.0143652099609375
5.22288233172736,1.44130939941406,9.2320416015625,0.0718260498046875
5.22499080807285,1.44609780273437,9.20331118164062,0.0718260498046875
5.22709928441833,1.50834704589844,9.20809958496094,0.0909796630859375
5.22920793719608,1.52750065917969,9.22246479492187,0.076614453125
5.23131658997384,1.5705962890625,9.18894597167969,0.158017309570312
5.23342524275159,1.62326872558594,9.22246479492187,0.181959326171875
5.23538899513875,1.58974990234375,9.24161840820312,0.229843359375
5.2373527475259,1.61848032226562,9.26077202148437,0.225054956054687
5.23931649991306,1.58496149902344,9.30386765136719,0.301669409179687
5.2413464131075,1.58017309570312,9.32780966796875,0.24899697265625
5.24337632630195,1.55623107910156,9.34217487792969,0.368707055664062
5.24540623949639,1.56580788574219,9.32780966796875,0.296881005859375
5.24743707977418,1.56101948242187,9.3852705078125,0.359130249023437
5.24946792005197,1.58017309570312,9.37569370117187,0.272938989257812
5.25149876032975,1.57538469238281,9.423577734375,0.368707055664062
5.25352848960497,1.54665427246094,9.44751975097656,0.373495458984375
5.25555821888018,1.55623107910156,9.5001921875,0.330399829101562
5.25758794815539,1.55144267578125,9.54328781738281,0.316034619140625
5.25961587556426,1.5322890625,9.5384994140625,0.359130249023437
5.26164380297312,1.49877023925781,9.54807622070313,0.349553442382812
5.26367173038199,1.51313544921875,9.52892260742187,0.349553442382812
5.26569757760419,1.46525141601562,9.5384994140625,0.430956298828125
5.2677234248264,1.50834704589844,9.52413420410156,0.4213794921875
5.26974927204861,1.51313544921875,9.5384994140625,0.531512768554687
5.27184352302521,1.51313544921875,9.55286462402344,0.569819995117188
5.27393777400181,1.52750065917969,9.49540378417969,0.636857641601562
5.27603202497841,1.52271225585937,9.49061538085937,0.713472094726562
5.27810461887764,1.60411511230469,9.49540378417969,0.742202514648437
5.28017721277687,1.65199914550781,9.4618849609375,0.761356127929687
5.28224980667611,1.69509477539062,9.50498059082031,0.8044517578125
5.28429200761743,1.74297880859375,9.50498059082031,0.828393774414062
5.28633420855875,1.79565124511719,9.5001921875,0.876277807617187
5.28837640950007,1.90578452148437,9.48103857421875,0.948103857421875
5.29041126491457,1.99676418457031,9.47625017089844,0.852335791015625
5.29244612032907,2.11647426757812,9.47146176757813,0.895431420898437
5.29448097574357,2.17393510742187,9.48582697753906,0.909796630859375
5.29651523388156,2.30322199707031,9.48582697753906,0.82360537109375
5.29854949201956,2.38462485351562,9.45709655761719,0.742202514648437
5.30058375015756,2.44687409667969,9.50976899414063,0.842758984375
5.30268856200651,2.48039291992187,9.50976899414063,0.78529814453125
5.30479337385547,2.57616098632812,9.51455739746094,0.837970581054687
5.30689818570443,2.65277543945312,9.54807622070313,0.876277807617187
5.30900358560681,2.67671745605469,9.58638344726563,0.914585034179687
5.3111089855092,2.63362182617187,9.58638344726563,0.948103857421875
5.31321438541158,2.69587106933594,9.64863269042969,1.02950671386719
5.31528525373839,2.69108266601562,9.64863269042969,0.9576806640625
5.3173561220652,2.74375510253906,9.68693991699219,1.00077629394531
5.319426990392,2.60489140625,9.70609353027344,1.02950671386719
5.32146324478651,2.59531459960937,9.72524714355469,1.05344873046875
5.32349949918103,2.54264216308594,9.74440075683594,1.04866032714844
5.32553575357554,2.50912333984375,9.79228479003906,1.05823713378906
5.32753400476914,2.43250888671875,9.79707319335937,0.991199487304687
5.32953225596274,2.39420166015625,9.82580361328125,0.948103857421875
5.33153050715634,2.36068283691406,9.82101520996094,0.948103857421875
5.33356183783121,2.2601263671875,9.80186159667969,0.866701000976562
5.33559316850608,2.221819140625,9.79707319335937,0.972045874023437
5.33762449918095,2.16914670410156,9.76355437011719,0.890643017578125
5.33973182616664,2.16435830078125,9.78270798339844,0.948103857421875
5.34183915315233,2.02070620117187,9.79707319335937,1.02471831054687
5.34394648013802,1.98718737792969,9.77313117675781,1.04387192382812
5.34605349451514,1.96324536132812,9.7683427734375,1.03908352050781
5.34816050889227,1.88184250488281,9.75876596679687,1.09654436035156
5.35026752326939,1.87226569824219,9.67736311035156,1.13963999023438
5.3523735193631,1.78607443847656,9.64863269042969,1.16837041015625
5.35447951545681,1.72861359863281,9.56244143066406,1.2641384765625
5.35658551155052,1.68072956542969,9.52413420410156,1.20667763671875
5.35869155989038,1.67115275878906,9.5001921875,1.32638771972656
5.36079760823024,1.63284553222656,9.45709655761719,1.35990654296875
5.3629036565701,1.62805712890625,9.35175168457031,1.45088620605469
5.36500040197661,1.58496149902344,9.29907924804687,1.58496149902344
5.36709714738312,1.54665427246094,9.21767639160156,1.62326872558594
5.36919389278963,1.53707746582031,9.16500395507812,1.7238251953125
5.37124818470948,1.54665427246094,9.10754311523437,1.77649763183594
5.37330247662933,1.55144267578125,8.98783303222656,1.90578452148437
5.37535676854918,1.58017309570312,8.93516059570312,1.915361328125
5.38056611512034,1.75734401855469,8.40843623046875,2.20266552734375
5.3857754616915,1.75734401855469,8.29351455078125,2.19787712402344
5.39098480826266,1.75255561523437,8.33661018066406,2.18830031738281
5.393085235129,1.78128603515625,8.26478413085937,2.20745393066406
5.39518566199534,1.83395847167969,8.29351455078125,2.25533796386719
5.39728608886168,1.79086284179687,8.2743609375,2.20266552734375
5.39932130522453,1.76692082519531,8.25520732421875,2.26970317382813
5.40135652158739,1.78607443847656,8.22647690429687,2.27449157714844
5.40339173795024,1.76692082519531,8.26478413085937,2.25533796386719
5.40542604795464,1.82917006835937,8.28393774414062,2.09732065429687
5.40746035795903,1.75734401855469,8.24563051757812,1.98239897460937
5.40949466796343,1.71424838867187,8.30787976074219,1.92493813476562
5.41152956390524,1.81001645507812,8.29830295410156,1.81959326171875
5.41356445984705,1.80522805175781,8.32703337402344,1.74297880859375
5.41559935578886,1.81001645507812,8.37970581054688,1.56101948242187
5.41770375118818,1.85311208496094,8.42758984375,1.33596452636719
5.41980814658751,1.915361328125,8.504204296875,1.18273562011719
