timestamp,accel_x (m/s2),accel_y (m/s2),accel_z (m/s2)
0.00243811870660693,-1.25935007324219,8.8872765625,0.167594116210937
0.00487623741321386,-0.359130249023437,10.0221281494141,-0.339976635742188
0.00731435611982079,-0.373495458984375,10.0604353759766,-0.383072265625
0.01227020648876,-0.316034619140625,10.0125513427734,-0.4979939453125
0.0172260568576993,-0.3064578125,10.0125513427734,-0.474051928710937
0.0221819072266385,-0.258573779296875,10.0460701660156,-0.454898315429687
0.0271467629124231,-0.282515795898438,10.0652237792969,-0.426167895507812
0.0321116185982078,-0.272938989257812,10.0556469726563,-0.464475122070312
0.0370764742839924,-0.225054956054687,10.0891657958984,-0.47884033203125
0.0420495725913004,-0.158017309570312,10.0795889892578,-0.469263525390625
0.0470226708986085,-0.13407529296875,10.0795889892578,-0.4979939453125
0.0519957692059165,-0.0909796630859375,10.0939541992188,-0.550666381835937
0.056976443468083,-0.09576806640625,10.1226846191406,-0.521935961914062
0.0619571177302494,-0.0143652099609375,10.1274730224609,-0.622492431640625
0.0669377919924159,-0.009576806640625,10.1514150390625,-0.63206923828125
0.0719225809464016,0.0718260498046875,10.1131078125,-0.608127221679687
0.0769073699003873,0.09576806640625,10.1131078125,-0.660799658203125
0.0818921588543731,0.138863696289063,10.0987426025391,-0.665588061523437
0.0868786973743264,0.201112939453125,10.0891657958984,-0.63206923828125
0.0918652358942798,0.258573779296875,10.0604353759766,-0.63206923828125
0.0968517744142332,0.263362182617187,10.0843773925781,-0.70868369140625
0.101841267252761,0.296881005859375,10.0795889892578,-0.675164868164063
0.106830760091289,0.335188232421875,10.0652237792969,-0.675164868164063
0.111820252929817,0.368707055664062,10.0460701660156,-0.675164868164063
0.116852255099976,0.373495458984375,10.0604353759766,-0.584185205078125
0.121884257270134,0.450109912109375,10.0125513427734,-0.675164868164063
0.126916259440293,0.474051928710937,10.036493359375,-0.612915625
0.131953230251933,0.512359155273437,10.0556469726563,-0.617704028320312
0.136990201063573,0.550666381835937,10.0029745361328,-0.641646044921875
0.142027171875213,0.545877978515625,10.0317049560547,-0.59376201171875
0.147067927626097,0.598550415039062,9.99339772949219,-0.627280834960937
0.15210868337698,0.660799658203125,10.0029745361328,-0.598550415039062
0.157149439127863,0.67037646484375,9.95509050292969,-0.627280834960937
0.162194656792792,0.675164868164063,9.96466730957031,-0.6512228515625
0.167239874457721,0.703895288085937,9.9981861328125,-0.636857641601562
0.17228509212265,0.718260498046875,9.97424411621094,-0.646434448242187
0.177334572916929,0.737414111328125,9.95509050292969,-0.660799658203125
0.182384053711208,0.775721337890625,9.96466730957031,-0.713472094726562
0.187433534505487,0.799663354492188,9.95030209960937,-0.684741674804688
0.192546048394377,0.770932934570312,9.95987890625,-0.656011254882812
0.197658562283266,0.775721337890625,9.95509050292969,-0.63206923828125
0.202771076172155,0.809240161132812,9.98860932617187,-0.665588061523437
0.20788947634577,0.818816967773437,10.0317049560547,-0.627280834960937
0.213007876519384,0.828393774414062,10.0029745361328,-0.588973608398437
0.218126276692999,0.852335791015625,10.0317049560547,-0.598550415039062
0.223246510525485,0.8044517578125,10.0029745361328,-0.565031591796875
0.22836674435797,0.818816967773437,10.0125513427734,-0.521935961914062
0.233486978190456,0.8044517578125,10.0125513427734,-0.541089575195312
0.238612777018583,0.818816967773437,9.96466730957031,-0.51714755859375
0.243738575846711,0.8810662109375,9.98860932617187,-0.550666381835937
0.248864374674838,0.847547387695312,9.97903251953125,-0.550666381835937
0.253991557834581,0.890643017578125,9.98382092285156,-0.565031591796875
0.259118740994325,0.876277807617187,10.0077629394531,-0.536301171875
0.264245924154068,0.890643017578125,9.97424411621094,-0.608127221679687
0.269434219509984,0.952892260742187,9.9981861328125,-0.622492431640625
0.274622514865901,0.890643017578125,10.0029745361328,-0.565031591796875
0.279810810221818,0.924161840820312,10.0173397460938,-0.603338818359375
0.285002479058619,0.909796630859375,9.97903251953125,-0.608127221679687
0.29019414789542,0.9193734375,10.0269165527344,-0.646434448242187
0.295385816732221,0.995987890625,10.0460701660156,-0.59376201171875
0.300655808702705,0.981622680664062,10.0173397460938,-0.579396801757812
0.305925800673189,0.967257470703125,9.9981861328125,-0.622492431640625
0.311195792643673,0.933738647460937,10.0125513427734,-0.641646044921875
0.316476323459653,1.00077629394531,10.0221281494141,-0.636857641601562
0.321756854275634,1.02950671386719,10.0317049560547,-0.660799658203125
0.327037385091614,1.01514150390625,10.0029745361328,-0.569819995117188
0.332322331163653,0.972045874023437,10.0317049560547,-0.603338818359375
0.337607277235691,1.01992990722656,9.9981861328125,-0.636857641601562
0.342892223307729,1.01992990722656,9.9981861328125,-0.646434448242187
0.348179555230464,1.00556469726562,10.0317049560547,-0.603338818359375
0.353466887153199,0.981622680664062,10.0029745361328,-0.67037646484375
0.358754219075934,1.00077629394531,9.98382092285156,-0.63206923828125
0.364043654731309,1.02950671386719,9.96945571289062,-0.660799658203125
0.369333090386685,0.967257470703125,9.96945571289062,-0.67037646484375
0.37462252604206,0.986411083984375,9.95987890625,-0.63206923828125
0.379914465278167,0.981622680664062,9.96466730957031,-0.689530078125
0.385206404514274,1.01035310058594,9.94072529296875,-0.74699091796875
0.39049834375038,1.04387192382812,9.96466730957031,-0.723048901367187
0.395797814887544,1.01035310058594,9.98382092285156,-0.761356127929687
0.401097286024708,0.981622680664062,9.97903251953125,-0.718260498046875
0.406396757161872,1.00077629394531,9.96466730957031,-0.723048901367187
0.414402698893658,0.93852705078125,9.94551369628906,-0.646434448242187
0.422408640625444,0.933738647460937,9.94551369628906,-0.521935961914062
0.43041458235723,0.895431420898437,9.95030209960937,-0.660799658203125
0.435763975043869,0.86191259765625,9.89284125976562,-0.6512228515625
0.441113367730509,0.8810662109375,9.883264453125,-0.598550415039062
0.446462760417148,0.837970581054687,9.90720646972656,-0.579396801757812
0.451818467339876,0.833182177734375,9.89762966308594,-0.612915625
0.457174174262605,0.837970581054687,9.9215716796875,-0.622492431640625
0.462529881185333,0.794874951171875,9.87368764648437,-0.5746083984375
0.467888083550785,0.780509741210937,9.89284125976562,-0.656011254882812
0.473246285916237,0.790086547851562,9.86889924316406,-0.665588061523437
0.47860448828169,0.751779321289062,9.90720646972656,-0.612915625
0.483964421983956,0.78529814453125,9.90720646972656,-0.689530078125
0.489324355686222,0.70868369140625,9.94551369628906,-0.718260498046875
0.494684289388488,0.703895288085937,9.883264453125,-0.732625708007812
0.500106907118531,0.703895288085937,9.86411083984375,-0.756567724609375
0.505529524848574,0.6512228515625,9.84016882324219,-0.790086547851562
0.510952142578617,0.6512228515625,9.86411083984375,-0.775721337890625
0.516378886176691,0.641646044921875,9.96945571289062,-0.799663354492188
0.521805629774766,0.622492431640625,10.0317049560547,-0.761356127929687
0.52723237337284,0.617704028320312,10.0125513427734,-0.86191259765625
0.532663699327713,0.636857641601562,10.0604353759766,-0.866701000976562
0.538095025282587,0.612915625,10.0748005859375,-0.914585034179687
0.54352635123746,0.660799658203125,10.1131078125,-0.814028564453125
0.548961751411071,0.627280834960937,10.0412817626953,-0.885854614257812
0.554397151584681,0.608127221679687,10.036493359375,-0.9576806640625
0.559832551758291,0.656011254882812,10.0125513427734,-0.928950244140625
0.565269875760047,0.636857641601562,10.036493359375,-0.885854614257812
0.570707199761804,0.63206923828125,10.036493359375,-0.928950244140625
0.57614452376356,0.608127221679687,10.0125513427734,-0.986411083984375
0.581649453559559,0.603338818359375,10.0077629394531,-0.981622680664062
0.587154383355558,0.603338818359375,9.86411083984375,-1.02950671386719
0.592659313151557,0.641646044921875,9.92636008300781,-1.03908352050781
0.598167342014411,0.646434448242187,9.97424411621094,-1.06302553710937
0.603675370877265,0.665588061523437,9.91199487304687,-0.9576806640625
0.609183399740118,0.737414111328125,9.93593688964844,-0.967257470703125
0.614693369249683,0.699106884765625,9.96945571289062,-0.986411083984375
0.620203338759249,0.713472094726562,10.0604353759766,-0.97683427734375
0.625713308268814,0.703895288085937,10.0460701660156,-0.972045874023437
0.631225988824364,0.718260498046875,10.0748005859375,-0.905008227539062
0.636738669379914,0.732625708007812,10.0652237792969,-0.895431420898437
0.642251349935464,0.751779321289062,10.0700121826172,-0.909796630859375
0.647765407010108,0.78529814453125,10.0460701660156,-0.995987890625
0.653279464084752,0.847547387695312,10.0077629394531,-0.9193734375
0.658793521159396,0.818816967773437,10.0269165527344,-0.93852705078125
0.664372444987521,0.8810662109375,10.0269165527344,-1.0342951171875
0.669951368815646,0.86191259765625,9.95509050292969,-0.97683427734375
0.675530292643771,0.914585034179687,9.99339772949219,-0.995987890625
0.681111330512711,0.895431420898437,9.94072529296875,-0.943315454101562
0.686692368381652,0.871489404296875,9.87368764648437,-0.952892260742187
0.692273406250592,0.924161840820312,9.98860932617187,-1.00077629394531
0.697855971788802,0.8810662109375,9.94551369628906,-0.952892260742187
0.703438537327012,0.93852705078125,9.94072529296875,-0.967257470703125
0.709021102865222,0.905008227539062,10.0748005859375,-0.93852705078125
0.714604917535363,0.914585034179687,10.1992990722656,-0.857124194335937
0.720188732205505,0.924161840820312,10.1178962158203,-0.818816967773437
0.725772546875646,0.9576806640625,10.2136642822266,-0.828393774414062
0.73135862651975,0.972045874023437,10.1370498291016,-0.780509741210937
0.736944706163854,0.962469067382812,10.0556469726563,-0.90021982421875
0.742530785807958,0.9576806640625,10.1226846191406,-0.871489404296875
0.74818897243991,0.943315454101562,10.1035310058594,-0.876277807617187
0.753847159071862,0.962469067382812,10.1131078125,-0.847547387695312
0.759505345703815,0.9576806640625,10.0987426025391,-0.914585034179687
0.765166413846184,0.952892260742187,10.1562034423828,-0.909796630859375
0.770827481988552,0.948103857421875,10.1226846191406,-0.933738647460937
0.776488550130921,0.895431420898437,10.1083194091797,-1.00077629394531
0.782151852105737,0.890643017578125,10.1322614257812,-0.933738647460937
0.787815154080552,0.885854614257812,10.0700121826172,-0.924161840820312
0.793478456055368,0.924161840820312,10.1226846191406,-0.9193734375
0.799143868490281,0.928950244140625,10.1753570556641,-0.9193734375
0.804809280925194,0.90021982421875,10.1466266357422,-0.967257470703125
0.810474693360106,0.9193734375,10.1849338623047,-0.914585034179687
0.816141982856645,0.914585034179687,10.1705686523437,-0.837970581054687
0.821809272353183,0.914585034179687,10.1609918457031,-0.933738647460937
0.827476561849721,0.905008227539062,10.1514150390625,-0.866701000976562
0.833213802409621,0.914585034179687,10.1083194091797,-0.905008227539062
0.838951042969522,0.890643017578125,10.1705686523437,-0.924161840820312
0.844688283529422,0.885854614257812,10.1322614257812,-0.933738647460937
0.850432297635318,0.847547387695312,10.0843773925781,-0.97683427734375
0.856176311741213,0.90021982421875,10.1514150390625,-0.943315454101562
0.861920325847109,0.914585034179687,10.0987426025391,-0.97683427734375
0.867666378255952,0.905008227539062,10.1322614257812,-0.9576806640625
0.873412430664795,0.981622680664062,10.0939541992188,-1.01514150390625
0.879158483073638,0.933738647460937,10.0508585693359,-0.948103857421875
0.884906440538922,0.967257470703125,9.9981861328125,-0.9193734375
0.890654398004206,0.967257470703125,9.98382092285156,-0.972045874023437
0.89640235546949,0.962469067382812,9.94551369628906,-0.97683427734375
0.902152179471235,0.986411083984375,9.94551369628906,-0.924161840820312
0.907902003472979,1.01514150390625,9.94072529296875,-0.972045874023437
0.913651827474723,1.0342951171875,9.89284125976562,-0.991199487304687
0.919466969944362,1.05344873046875,9.883264453125,-0.857124194335937
0.925282112414,1.00556469726562,9.92636008300781,-0.962469067382812
0.931097254883639,1.01035310058594,9.88805285644531,-0.962469067382812
0.936918120226513,1.00077629394531,9.87368764648437,-0.967257470703125
0.942738985569387,1.01035310058594,9.85932243652344,-0.905008227539062
0.948559850912261,1.04387192382812,9.85932243652344,-0.948103857421875
0.954387916450476,0.981622680664062,9.85932243652344,-0.952892260742187
0.960215981988692,1.01035310058594,9.83059201660156,-0.948103857421875
0.966044047526907,1.01035310058594,9.81143840332031,-0.90021982421875
0.971875727539934,0.972045874023437,9.82580361328125,-0.93852705078125
0.97770740755296,0.962469067382812,9.81143840332031,-0.876277807617187
0.983539087565987,0.93852705078125,9.82101520996094,-0.928950244140625
0.989372754883713,0.9193734375,9.83059201660156,-0.895431420898437
0.995206422201439,0.9193734375,9.82580361328125,-0.952892260742187
1.00104008951917,0.909796630859375,9.8449572265625,-0.97683427734375
1.00693249338201,0.928950244140625,9.83538041992187,-0.928950244140625
1.01282489724485,0.857124194335937,9.86411083984375,-0.909796630859375
1.0187173011077,0.8810662109375,9.81143840332031,-0.871489404296875
1.02468772406777,0.852335791015625,9.87847604980469,-0.943315454101562
1.03065814702783,0.86191259765625,9.84974562988281,-0.905008227539062
1.0366285699879,0.876277807617187,9.90241806640625,-0.895431420898437
1.04260225542627,0.847547387695312,9.89762966308594,-0.905008227539062
1.04857594086464,0.866701000976562,9.87368764648437,-0.924161840820312
1.05454962630301,0.842758984375,9.88805285644531,-0.8810662109375
1.06052581619016,0.82360537109375,9.94072529296875,-0.952892260742187
1.0665020060773,0.8044517578125,9.94072529296875,-0.967257470703125
1.07247819596444,0.818816967773437,9.93593688964844,-0.914585034179687
1.07845702908075,0.828393774414062,9.89762966308594,-0.943315454101562
1.08443586219706,0.78529814453125,9.89762966308594,-0.909796630859375
1.09041469531337,0.78529814453125,9.91678327636719,-0.909796630859375
1.09639556336894,0.809240161132812,9.883264453125,-0.9193734375
1.10237643142451,0.78529814453125,9.92636008300781,-0.933738647460937
1.10835729948008,0.76614453125,9.94551369628906,-0.86191259765625
1.11434012066062,0.770932934570312,9.87368764648437,-0.905008227539062
1.12032294184117,0.8044517578125,9.883264453125,-0.895431420898437
1.12630576302172,0.794874951171875,9.8449572265625,-0.876277807617187
1.13229048046965,0.790086547851562,9.883264453125,-0.890643017578125
1.13827519791759,0.790086547851562,9.85453403320312,-0.9193734375
1.14425991536552,0.8044517578125,9.84016882324219,-0.857124194335937
1.15632586035251,0.86191259765625,9.91199487304687,-1.02471831054687
1.16839180533949,0.828393774414062,9.88805285644531,-1.00077629394531
1.18045775032647,0.866701000976562,9.88805285644531,-0.948103857421875
1.1865097228742,0.86191259765625,9.87368764648437,-1.00556469726562
1.19256169542192,0.86191259765625,9.88805285644531,-0.972045874023437
1.19861366796965,0.86191259765625,9.90241806640625,-0.93852705078125
1.20466788639415,0.852335791015625,9.84016882324219,-0.995987890625
1.21072210481865,0.890643017578125,9.79707319335937,-0.93852705078125
1.21677632324315,0.914585034179687,9.87847604980469,-0.943315454101562
1.22283249620322,0.8810662109375,9.8449572265625,-0.967257470703125
1.22888866916329,0.847547387695312,9.84974562988281,-0.885854614257812
1.23494484212335,0.833182177734375,9.87368764648437,-0.895431420898437
1.24100289355564,0.857124194335937,9.84974562988281,-0.885854614257812
1.24706094498792,0.828393774414062,9.83538041992187,-0.928950244140625
1.2531189964202,0.837970581054687,9.8449572265625,-0.842758984375
1.25924796951047,0.852335791015625,9.86411083984375,-0.948103857421875
1.26537694260075,0.833182177734375,9.8449572265625,-0.952892260742187
1.27150591569102,0.818816967773437,9.87847604980469,-0.909796630859375
1.27763929774399,0.809240161132812,9.8449572265625,-0.9576806640625
1.28377267979696,0.790086547851562,9.85932243652344,-0.943315454101562
1.28990606184993,0.799663354492188,9.91678327636719,-0.914585034179687
1.29604150097756,0.837970581054687,9.89762966308594,-0.871489404296875
1.30217694010518,0.833182177734375,9.883264453125,-0.952892260742187
1.3083123792328,0.828393774414062,9.9215716796875,-0.924161840820312
1.31445019867726,0.809240161132812,9.91199487304687,-0.991199487304687
1.32058801812173,0.847547387695312,9.90241806640625,-0.90021982421875
1.32672583756619,0.86191259765625,9.94551369628906,-0.914585034179687
1.33286551942384,0.78529814453125,9.9215716796875,-0.9576806640625
1.33900520128149,0.799663354492188,9.93114848632812,-0.93852705078125
1.34514488313914,0.8044517578125,9.95987890625,-0.914585034179687
1.35135060677195,0.775721337890625,9.96466730957031,-0.972045874023437
1.35755633040477,0.790086547851562,10.0029745361328,-0.967257470703125
1.36376205403758,0.799663354492188,10.0412817626953,-0.9576806640625
1.36997289778757,0.790086547851562,9.99339772949219,-0.9576806640625
1.37618374153756,0.7278373046875,10.0221281494141,-0.972045874023437
1.38239458528756,0.74699091796875,10.0077629394531,-0.885854614257812
1.38861093956272,0.770932934570312,10.0077629394531,-0.952892260742187
1.39482729383788,0.751779321289062,10.0029745361328,-0.9576806640625
1.40104364811305,0.737414111328125,10.0317049560547,-0.890643017578125
1.40726429991427,0.794874951171875,10.0748005859375,-0.895431420898437
1.41348495171549,0.770932934570312,10.0508585693359,-0.890643017578125
1.41970560351672,0.775721337890625,10.0556469726563,-0.852335791015625
1.42592823513564,0.818816967773437,10.0269165527344,-0.86191259765625
1.43215086675457,0.799663354492188,10.0700121826172,-0.871489404296875
1.43837349837349,0.78529814453125,10.0604353759766,-0.837970581054687
1.44465661697158,0.842758984375,10.0412817626953,-0.890643017578125
1.45093973556967,0.818816967773437,9.9981861328125,-0.8810662109375
1.45722285416775,0.885854614257812,10.0029745361328,-0.895431420898437
1.46350869780925,0.871489404296875,10.0269165527344,-0.90021982421875
1.46979454145075,0.852335791015625,9.98382092285156,-0.972045874023437
1.47608038509225,0.90021982421875,10.0029745361328,-0.962469067382812
1.48236839030058,0.895431420898437,10.0125513427734,-0.9576806640625
1.48865639550892,0.8810662109375,9.99339772949219,-0.981622680664062
1.49494440071726,0.871489404296875,10.0508585693359,-1.01514150390625
1.50123467079106,0.933738647460937,10.0173397460938,-1.06302553710937
1.50752494086487,0.90021982421875,10.0077629394531,-1.03908352050781
1.51381521093867,0.93852705078125,10.0221281494141,-1.06302553710937
1.52010938856453,0.895431420898437,10.036493359375,-1.11569797363281
1.52640356619039,0.9193734375,10.0795889892578,-1.1109095703125
1.53269774381624,0.9193734375,10.0508585693359,-1.19710083007812
1.53905975010965,0.8810662109375,10.0987426025391,-1.12527478027344
1.54542175640305,0.924161840820312,10.1178962158203,-1.12048637695313
1.55178376269646,0.914585034179687,10.0843773925781,-1.16358200683594
1.55814925965827,0.93852705078125,10.0604353759766,-1.13485158691406
1.56451475662008,0.914585034179687,10.0843773925781,-1.05823713378906
1.57088025358189,0.914585034179687,10.1083194091797,-1.01992990722656
1.57724850629457,0.871489404296875,10.0843773925781,-0.948103857421875
1.58361675900725,0.852335791015625,10.0987426025391,-0.981622680664062
1.58998501171993,0.890643017578125,10.0460701660156,-0.924161840820312
1.59635519553069,0.876277807617187,10.0460701660156,-0.890643017578125
1.60272537934145,0.876277807617187,10.0269165527344,-0.871489404296875
1.60909556315221,0.90021982421875,10.036493359375,-0.866701000976562
1.6154676489812,0.890643017578125,10.0317049560547,-0.852335791015625
1.6218397348102,0.885854614257812,10.0029745361328,-0.943315454101562
1.62821182063919,0.876277807617187,9.98382092285156,-0.981622680664062
1.63465205826939,0.914585034179687,9.97424411621094,-1.00556469726562
1.64109229589959,0.93852705078125,9.98382092285156,-1.01035310058594
1.64753253352978,0.933738647460937,9.97903251953125,-1.02950671386719
1.65397625021816,0.948103857421875,9.9981861328125,-1.06781394042969
1.66041996690653,0.905008227539062,9.9981861328125,-1.15879360351562
1.6668636835949,0.9193734375,9.94072529296875,-1.12527478027344
1.67331058539613,0.928950244140625,9.96945571289062,-1.17315881347656
1.67975748719736,0.933738647460937,9.96466730957031,-1.14442839355469
1.68620438899859,0.885854614257812,9.90241806640625,-1.13963999023438
1.69265321028767,0.943315454101562,9.96466730957031,-1.16837041015625
1.69910203157675,0.914585034179687,9.96466730957031,-1.18273562011719
1.70555085286583,0.948103857421875,9.93114848632812,-1.17315881347656
1.71200153114273,0.9193734375,9.99339772949219,-1.20188923339844
1.71845220941964,0.967257470703125,9.9981861328125,-1.13485158691406
1.72490288769654,0.962469067382812,10.0029745361328,-1.08217915039062
1.73143653135973,0.986411083984375,9.9981861328125,-1.08696755371094
1.73797017502291,0.93852705078125,9.99339772949219,-1.10133276367187
1.7445038186861,0.943315454101562,9.97903251953125,-0.962469067382812
1.75104201454114,0.90021982421875,9.97903251953125,-0.967257470703125
1.75758021039618,0.9193734375,9.93114848632812,-0.8810662109375
1.76411840625121,0.871489404296875,9.90241806640625,-0.857124194335937
1.7706602606349,0.828393774414062,9.90241806640625,-0.756567724609375
1.77720211501859,0.890643017578125,9.91678327636719,-0.751779321289062
1.78374396940228,0.790086547851562,9.90241806640625,-0.799663354492188
1.79028949891616,0.794874951171875,9.87847604980469,-0.790086547851562
1.79683502843003,0.78529814453125,9.8449572265625,-0.732625708007812
1.80338055794391,0.761356127929687,9.90720646972656,-0.742202514648437
1.80992957009668,0.751779321289062,9.88805285644531,-0.761356127929687
1.81647858224945,0.723048901367187,9.883264453125,-0.780509741210937
1.82302759440222,0.679953271484375,9.86889924316406,-0.78529814453125
1.82962386501852,0.656011254882812,9.85932243652344,-0.756567724609375
1.83622013563483,0.660799658203125,9.86889924316406,-0.790086547851562
1.84281640625113,0.641646044921875,9.89762966308594,-0.770932934570312
1.8494224794933,0.6512228515625,9.87847604980469,-0.718260498046875
1.85602855273548,0.63206923828125,9.86411083984375,-0.76614453125
1.86263462597765,0.608127221679687,9.93114848632812,-0.718260498046875
1.86924383496201,0.622492431640625,9.95030209960937,-0.790086547851562
1.87585304394637,0.622492431640625,9.96466730957031,-0.751779321289062
1.88246225293074,0.622492431640625,9.95987890625,-0.790086547851562
1.88907482888559,0.636857641601562,9.95509050292969,-0.790086547851562
1.89568740484045,0.6512228515625,9.98382092285156,-0.794874951171875
1.90229998079531,0.660799658203125,9.97424411621094,-0.780509741210937
1.90891442621633,0.7278373046875,10.0029745361328,-0.770932934570312
1.91552887163736,0.713472094726562,10.036493359375,-0.756567724609375
1.92214331705839,0.74699091796875,10.0173397460938,-0.828393774414062
1.92881678342125,0.694318481445312,10.036493359375,-0.82360537109375
1.93549024978411,0.737414111328125,10.0652237792969,-0.751779321289062
1.94216371614698,0.799663354492188,10.0460701660156,-0.8044517578125
1.94884102311312,0.78529814453125,10.0939541992188,-0.818816967773437
1.95551833007926,0.809240161132812,10.0987426025391,-0.857124194335937
1.9621956370454,0.837970581054687,10.0891657958984,-0.90021982421875
1.96887524446728,0.8810662109375,10.1178962158203,-0.8810662109375
1.97555485188915,0.86191259765625,10.0795889892578,-0.809240161132812
1.98223445931103,0.876277807617187,10.0556469726563,-0.90021982421875
1.98891610764004,0.90021982421875,10.0173397460938,-0.909796630859375
1.99559775596905,0.871489404296875,10.0125513427734,-0.842758984375
2.00227940429806,0.866701000976562,10.0460701660156,-0.857124194335937
2.00896501085189,0.909796630859375,9.9981861328125,-0.890643017578125
2.01565061740572,0.890643017578125,9.98382092285156,-0.847547387695312
2.02233622395954,0.914585034179687,9.91678327636719,-0.780509741210937
2.02908842426336,0.914585034179687,9.89284125976562,-0.933738647460937
2.03584062456719,0.928950244140625,9.90241806640625,-0.833182177734375
2.04259282487101,0.962469067382812,9.82580361328125,-0.78529814453125
2.04934776584325,0.914585034179687,9.80186159667969,-0.842758984375
2.05610270681548,0.995987890625,9.7683427734375,-0.818816967773437
2.06285764778772,1.02471831054687,9.75876596679687,-0.814028564453125
2.06961558734937,1.00077629394531,9.74918916015625,-0.799663354492188
2.07637352691101,1.04866032714844,9.80186159667969,-0.751779321289062
2.08313146647265,1.05823713378906,9.71567033691406,-0.751779321289062
2.08989150662023,1.04387192382812,9.71088193359375,-0.790086547851562
2.09665154676782,1.08217915039062,9.730035546875,-0.86191259765625
2.1034115869154,1.07260234375,9.72045874023437,-0.794874951171875
2.11017367849528,1.05344873046875,9.71567033691406,-0.818816967773437
2.11693577007516,1.02950671386719,9.71088193359375,-0.794874951171875
2.12369786165505,1.04387192382812,9.74440075683594,-0.76614453125
2.13052886968455,1.08696755371094,9.730035546875,-0.732625708007812
2.13735987771406,1.06781394042969,9.74918916015625,-0.78529814453125
2.14419088574357,1.09175595703125,9.74440075683594,-0.675164868164063
2.1510253313816,1.09654436035156,9.81622680664062,-0.694318481445312
2.15785977701963,1.07260234375,9.82580361328125,-0.660799658203125
2.16469422265766,1.10612116699219,9.84974562988281,-0.660799658203125
2.17153069401184,1.07260234375,9.87368764648437,-0.689530078125
2.17836716536601,1.08217915039062,9.83059201660156,-0.70868369140625
2.18520363672019,1.09175595703125,9.91199487304687,-0.7278373046875
2.19204203732784,1.05823713378906,9.93114848632812,-0.694318481445312
2.19888043793549,1.07739074707031,9.95030209960937,-0.656011254882812
2.20571883854313,1.07260234375,9.95030209960937,-0.694318481445312
2.21255907009697,1.0342951171875,9.95987890625,-0.689530078125
2.21939930165081,1.01514150390625,9.93114848632812,-0.636857641601562
2.22623953320465,0.991199487304687,9.98860932617187,-0.622492431640625
2.23316088140344,0.972045874023437,10.0173397460938,-0.59376201171875
2.24008222960223,1.00556469726562,10.0173397460938,-0.675164868164063
2.24700357780102,0.948103857421875,10.0412817626953,-0.694318481445312
2.25392952376455,0.962469067382812,10.0556469726563,-0.7278373046875
2.26085546972809,0.943315454101562,10.1131078125,-0.656011254882812
2.26778141569162,0.9576806640625,10.1514150390625,-0.756567724609375
2.26979496848024,0.928950244140625,10.1801454589844,-0.756567724609375
2.27180852126886,0.948103857421875,10.2136642822266,-0.74699091796875
2.27382207405748,0.933738647460937,10.1849338623047,-0.814028564453125
2.27579485232352,0.948103857421875,10.1945106689453,-0.70868369140625
2.27776763058957,0.90021982421875,10.1705686523437,-0.732625708007812
2.27974040885562,0.9576806640625,10.1466266357422,-0.699106884765625
2.28170823947626,0.914585034179687,10.1035310058594,-0.833182177734375
2.28367607009691,0.8810662109375,10.0843773925781,-0.799663354492188
2.28564390071756,0.93852705078125,10.0748005859375,-0.8044517578125
2.2876660422106,0.847547387695312,10.0029745361328,-0.8044517578125
2.28968818370364,0.86191259765625,9.97903251953125,-0.876277807617187
2.29171032519668,0.890643017578125,9.96466730957031,-0.794874951171875
2.29373361268584,0.90021982421875,9.91199487304687,-0.794874951171875
2.295756900175,0.837970581054687,9.94072529296875,-0.794874951171875
2.29778018766416,0.847547387695312,9.88805285644531,-0.8810662109375
2.29980426090636,0.895431420898437,9.90241806640625,-0.9193734375
2.30182833414856,0.909796630859375,9.84974562988281,-0.871489404296875
2.30385240739076,0.905008227539062,9.83538041992187,-0.86191259765625
2.30587770724971,0.890643017578125,9.85932243652344,-0.818816967773437
2.30790300710866,0.933738647460937,9.83538041992187,-0.780509741210937
2.30992830696761,0.9576806640625,9.83059201660156,-0.78529814453125
2.31193530501448,0.952892260742187,9.81143840332031,-0.756567724609375
2.31394230306135,0.948103857421875,9.76355437011719,-0.70868369140625
2.31594930110822,0.962469067382812,9.80186159667969,-0.770932934570312
2.31797990890984,1.00077629394531,9.79228479003906,-0.703895288085937
2.32001051671146,0.991199487304687,9.80186159667969,-0.684741674804688
2.32204112451308,0.986411083984375,9.84974562988281,-0.641646044921875
2.32408653868409,0.986411083984375,9.83538041992187,-0.6512228515625
2.3261319528551,1.01992990722656,9.8449572265625,-0.598550415039062
2.32817736702611,0.97683427734375,9.84974562988281,-0.6512228515625
2.33022792795276,1.02950671386719,9.87368764648437,-0.656011254882812
2.33227848887941,1.01514150390625,9.87847604980469,-0.627280834960937
2.33432904980606,0.991199487304687,9.89284125976562,-0.703895288085937
2.33637946403132,1.02471831054687,9.91199487304687,-0.603338818359375
2.33842987825659,1.02950671386719,9.87368764648437,-0.679953271484375
2.34048029248186,1.04387192382812,9.90241806640625,-0.699106884765625
2.34249910254044,0.991199487304687,9.89284125976562,-0.684741674804688
2.34451791259903,0.97683427734375,9.883264453125,-0.713472094726562
2.34653672265762,1.01992990722656,9.9215716796875,-0.627280834960937
2.34856331684165,0.967257470703125,9.9215716796875,-0.598550415039062
2.35058991102568,0.967257470703125,9.90241806640625,-0.608127221679687
2.35261650520971,1.00556469726562,9.9215716796875,-0.536301171875
2.35464249788547,1.01514150390625,9.95030209960937,-0.617704028320312
2.35666849056124,0.967257470703125,9.96945571289062,-0.521935961914062
2.358694483237,1.04387192382812,9.9215716796875,-0.483628735351562
2.36071916287023,0.995987890625,9.88805285644531,-0.493205541992187
2.36274384250345,0.986411083984375,9.9215716796875,-0.51714755859375
2.36476852213667,0.995987890625,9.93593688964844,-0.512359155273437
2.36679207356894,1.01514150390625,9.883264453125,-0.464475122070312
2.36881562500122,0.972045874023437,9.86411083984375,-0.502782348632812
2.37083917643349,1.00077629394531,9.89762966308594,-0.450109912109375
2.37283350900727,0.933738647460937,9.87368764648437,-0.51714755859375
2.37482784158105,0.967257470703125,9.883264453125,-0.526724365234375
2.37682217415482,0.943315454101562,9.85453403320312,-0.483628735351562
2.37885224164612,0.948103857421875,9.86411083984375,-0.5746083984375
2.38088230913742,0.972045874023437,9.87847604980469,-0.584185205078125
2.38291237662872,0.914585034179687,9.89762966308594,-0.569819995117188
2.38490477875547,0.972045874023437,9.86411083984375,-0.565031591796875
2.38689718088222,0.93852705078125,9.90241806640625,-0.646434448242187
2.38888958300896,0.905008227539062,9.89762966308594,-0.627280834960937
2.39083958865132,0.885854614257812,9.85932243652344,-0.656011254882812
2.39278959429367,0.90021982421875,9.92636008300781,-0.713472094726562
2.39473959993603,0.818816967773437,9.91678327636719,-0.656011254882812
2.39668407025939,0.895431420898437,9.91199487304687,-0.737414111328125
2.39862854058274,0.847547387695312,9.93593688964844,-0.699106884765625
2.4005730109061,0.828393774414062,9.96945571289062,-0.689530078125
2.40251597140957,0.857124194335937,9.9981861328125,-0.646434448242187
2.40445893191304,0.814028564453125,9.97903251953125,-0.67037646484375
2.40640189241651,0.8044517578125,9.98860932617187,-0.713472094726562
2.40842448855369,0.8044517578125,10.0173397460938,-0.713472094726562
2.41044708469087,0.8044517578125,10.0795889892578,-0.656011254882812
2.41246968082805,0.751779321289062,10.0939541992188,-0.603338818359375
2.41449453884671,0.76614453125,10.0508585693359,-0.565031591796875
2.41651939686536,0.775721337890625,10.0795889892578,-0.560243188476563
2.41854425488401,0.794874951171875,10.0748005859375,-0.608127221679687
2.42056774229722,0.732625708007812,10.0748005859375,-0.512359155273437
2.42259122971043,0.76614453125,10.0939541992188,-0.521935961914062
2.42461471712363,0.770932934570312,10.0795889892578,-0.507570751953125
2.42662664301338,0.780509741210937,10.0748005859375,-0.488417138671875
2.42863856890312,0.761356127929687,10.0987426025391,-0.507570751953125
2.43065049479287,0.8044517578125,10.1178962158203,-0.4213794921875
2.43263200010972,0.775721337890625,10.1035310058594,-0.378283862304687
2.43461350542657,0.799663354492188,10.1083194091797,-0.383072265625
2.43659501074342,0.818816967773437,10.0700121826172,-0.416591088867187
2.43863502832153,0.775721337890625,10.036493359375,-0.430956298828125
2.44067504589964,0.78529814453125,10.0748005859375,-0.40222587890625
2.44271506347775,0.842758984375,10.036493359375,-0.36391865234375
2.44475608496214,0.837970581054687,10.0460701660156,-0.373495458984375
2.44679710644652,0.814028564453125,9.97903251953125,-0.354341845703125
2.44883812793091,0.833182177734375,9.96945571289062,-0.445321508789062
2.4508803933389,0.809240161132812,9.91678327636719,-0.397437475585937
2.45292265874688,0.790086547851562,9.92636008300781,-0.40222587890625
2.45496492415487,0.818816967773437,9.88805285644531,-0.430956298828125
2.45700899750557,0.770932934570312,9.83538041992187,-0.354341845703125
2.45905307085627,0.780509741210937,9.82580361328125,-0.359130249023437
2.46109714420697,0.794874951171875,9.80665,-0.330399829101562
2.46308200889882,0.756567724609375,9.77313117675781,-0.282515795898438
2.46506687359067,0.723048901367187,9.66299790039063,-0.181959326171875
2.46705173828252,0.70868369140625,9.63905588378906,-0.158017309570312
2.46908088118619,0.718260498046875,9.59117185058594,-0.124498486328125
2.47111002408985,0.684741674804688,9.58638344726563,-0.05746083984375
2.47313916699352,0.665588061523437,9.5384994140625,-0.148440502929687
2.47516641536591,0.6512228515625,9.50976899414063,-0.148440502929687
2.4771936637383,0.67037646484375,9.5001921875,-0.215478149414062
2.47922091211069,0.612915625,9.55286462402344,-0.148440502929687
2.48124615798743,0.612915625,9.49540378417969,-0.201112939453125
2.48327140386417,0.560243188476563,9.45230815429687,-0.28730419921875
2.48529664974092,0.579396801757812,9.48582697753906,-0.272938989257812
2.4873218827053,0.536301171875,9.48103857421875,-0.378283862304687
2.48934711566968,0.521935961914062,9.49540378417969,-0.469263525390625
2.49137234863406,0.483628735351562,9.47625017089844,-0.565031591796875
2.49333198763145,0.483628735351562,9.49540378417969,-0.51714755859375
2.49529162662884,0.469263525390625,9.47625017089844,-0.612915625
2.49725126562623,0.454898315429687,9.48103857421875,-0.636857641601562
2.49927646158975,0.45968671875,9.48582697753906,-0.6512228515625
2.50130165755328,0.483628735351562,9.52892260742187,-0.718260498046875
2.5033268535168,0.464475122070312,9.59117185058594,-0.70868369140625
2.50535287011833,0.541089575195312,9.65820949707031,-0.67037646484375
2.50737888671987,0.541089575195312,9.72045874023437,-0.689530078125
2.50940490332141,0.545877978515625,9.75397756347656,-0.6512228515625
2.51143050249675,0.603338818359375,9.83538041992187,-0.612915625
2.51345610167209,0.612915625,9.9215716796875,-0.684741674804688
2.51548170084743,0.6512228515625,9.92636008300781,-0.70868369140625
2.51750891200197,0.636857641601562,9.95509050292969,-0.761356127929687
2.51953612315651,0.6512228515625,9.96466730957031,-0.78529814453125
2.52156333431105,0.63206923828125,10.0556469726563,-0.723048901367187
2.52352777853848,0.684741674804688,10.0987426025391,-0.737414111328125
2.5254922227659,0.660799658203125,10.1131078125,-0.694318481445312
2.52745666699332,0.679953271484375,10.1849338623047,-0.76614453125
2.52948623741433,0.67037646484375,10.1992990722656,-0.718260498046875
2.53151580783534,0.679953271484375,10.1801454589844,-0.67037646484375
2.53354537825635,0.67037646484375,10.1657802490234,-0.675164868164063
2.535576521377,0.684741674804688,10.189722265625,-0.689530078125
2.53760766449765,0.660799658203125,10.1849338623047,-0.675164868164063
2.5396388076183,0.70868369140625,10.1992990722656,-0.59376201171875
2.5416708841157,0.703895288085937,10.2088758789062,-0.603338818359375
2.54370296061309,0.679953271484375,10.189722265625,-0.603338818359375
2.54573503711049,0.7278373046875,10.2088758789062,-0.612915625
2.54776687152889,0.761356127929687,10.2184526855469,-0.565031591796875
2.5497987059473,0.74699091796875,10.1992990722656,-0.617704028320312
2.5518305403657,0.718260498046875,10.2040874755859,-0.646434448242187
2.55379215983184,0.775721337890625,10.1705686523437,-0.689530078125
2.55575377929798,0.751779321289062,10.1514150390625,-0.598550415039062
2.55771539876412,0.74699091796875,10.0891657958984,-0.617704028320312
2.55974633843425,0.770932934570312,10.0843773925781,-0.656011254882812
2.56177727810439,0.814028564453125,10.0269165527344,-0.689530078125
2.56380821777452,0.799663354492188,10.0269165527344,-0.737414111328125
2.56584276410698,0.814028564453125,9.96945571289062,-0.775721337890625
2.56787731043945,0.794874951171875,9.92636008300781,-0.790086547851562
2.56991185677191,0.837970581054687,9.95987890625,-0.943315454101562
2.57194667296111,0.799663354492188,9.90241806640625,-0.972045874023437
2.57398148915032,0.799663354492188,9.94072529296875,-1.1109095703125
2.57601630533952,0.82360537109375,9.883264453125,-1.22583125
2.5780512424055,0.833182177734375,9.87847604980469,-1.24977326660156
2.58008617947147,0.76614453125,9.90720646972656,-1.23061965332031
2.58212111653745,0.770932934570312,9.81143840332031,-1.23540805664062
2.58408803852096,0.737414111328125,9.83538041992187,-1.2641384765625
2.58605496050446,0.67037646484375,9.87847604980469,-1.2641384765625
2.58802188248796,0.646434448242187,9.9215716796875,-1.17315881347656
2.59004573329094,0.684741674804688,9.91199487304687,-1.19710083007812
2.59206958409391,0.63206923828125,9.94551369628906,-1.08696755371094
2.59409343489688,0.641646044921875,9.94551369628906,-1.04866032714844
2.59612469227538,0.550666381835937,10.0221281494141,-1.05344873046875
2.59815594965388,0.579396801757812,10.0125513427734,-1.01035310058594
2.60018720703238,0.536301171875,10.0795889892578,-1.03908352050781
2.60222239377284,0.512359155273437,10.0891657958984,-1.01035310058594
2.6042575805133,0.469263525390625,10.1226846191406,-1.02950671386719
2.60629276725376,0.47884033203125,10.1705686523437,-0.995987890625
2.60832933702371,0.47884033203125,10.1370498291016,-0.972045874023437
2.61036590679366,0.47884033203125,10.1514150390625,-0.972045874023437
2.6124024765636,0.507570751953125,10.2088758789062,-0.952892260742187
2.61437576888128,0.536301171875,10.189722265625,-0.9193734375
2.61634906119897,0.526724365234375,10.2040874755859,-0.857124194335937
2.61832235351665,0.569819995117188,10.1801454589844,-0.780509741210937
2.62034657009652,0.526724365234375,10.1609918457031,-0.814028564453125
2.62237078667639,0.608127221679687,10.1849338623047,-0.775721337890625
2.62439500325627,0.656011254882812,10.1705686523437,-0.828393774414062
2.62641539247068,0.608127221679687,10.1753570556641,-0.837970581054687
2.62843578168508,0.641646044921875,10.1131078125,-0.828393774414062
2.63045617089949,0.622492431640625,10.1609918457031,-0.790086547851562
2.6324751366113,0.723048901367187,10.1466266357422,-0.8044517578125
2.6344941023231,0.7278373046875,10.1801454589844,-0.818816967773437
2.6365130680349,0.703895288085937,10.2040874755859,-0.775721337890625
2.63853251671109,0.703895288085937,10.1657802490234,-0.74699091796875
2.64055196538728,0.76614453125,10.1418382324219,-0.751779321289062
2.64257141406347,0.74699091796875,10.1274730224609,-0.689530078125
2.64453538617719,0.723048901367187,10.1514150390625,-0.718260498046875
2.64649935829092,0.751779321289062,10.1083194091797,-0.603338818359375
2.64846333040464,0.684741674804688,10.0604353759766,-0.660799658203125
2.6504167919932,0.737414111328125,10.0843773925781,-0.627280834960937
2.65237025358177,0.7278373046875,10.0412817626953,-0.569819995117188
2.65432371517034,0.694318481445312,10.0748005859375,-0.541089575195312
2.65628020876841,0.70868369140625,10.0891657958984,-0.598550415039062
2.65823670236648,0.660799658203125,10.0412817626953,-0.608127221679687
2.66019319596455,0.6512228515625,9.9981861328125,-0.493205541992187
2.66215111556092,0.665588061523437,9.98860932617187,-0.550666381835937
2.66410903515729,0.617704028320312,9.96945571289062,-0.435744702148437
2.66606695475366,0.588973608398437,9.91678327636719,-0.51714755859375
2.66802579676755,0.579396801757812,9.87368764648437,-0.560243188476563
2.66998463878144,0.531512768554687,9.89762966308594,-0.560243188476563
2.67194348079533,0.51714755859375,9.8449572265625,-0.579396801757812
2.67390430382049,0.507570751953125,9.7683427734375,-0.627280834960937
2.67586512684564,0.454898315429687,9.78270798339844,-0.588973608398437
2.67782594987079,0.445321508789062,9.78270798339844,-0.617704028320312
2.67984518771804,0.411802685546875,9.81622680664062,-0.565031591796875
2.68186442556528,0.36391865234375,9.76355437011719,-0.545877978515625
2.68388366341253,0.330399829101562,9.7683427734375,-0.474051928710937
2.68590409060437,0.3064578125,9.73961235351562,-0.407014282226562
2.6879245177962,0.2681505859375,9.75397756347656,-0.450109912109375
2.68994494498804,0.244208569335937,9.730035546875,-0.464475122070312
2.69193563791339,0.2681505859375,9.79228479003906,-0.387860668945312
2.69392633083874,0.263362182617187,9.80186159667969,-0.407014282226562
2.69591702376408,0.220266552734375,9.79707319335937,-0.4213794921875
2.69787774153754,0.234631762695312,9.78749638671875,-0.387860668945312
2.69983845931101,0.258573779296875,9.78749638671875,-0.349553442382812
2.70179917708447,0.263362182617187,9.80186159667969,-0.397437475585937
2.7037588431001,0.258573779296875,9.81143840332031,-0.373495458984375
2.70571850911574,0.24899697265625,9.78749638671875,-0.407014282226562
2.70767817513138,0.24899697265625,9.79228479003906,-0.454898315429687
2.70970447016176,0.272938989257812,9.74918916015625,-0.36391865234375
2.71173076519214,0.2681505859375,9.78270798339844,-0.416591088867187
2.71375706022252,0.296881005859375,9.79228479003906,-0.359130249023437
2.71578752712791,0.316034619140625,9.78270798339844,-0.368707055664062
2.7178179940333,0.392649072265625,9.78270798339844,-0.392649072265625
2.71984846093869,0.373495458984375,9.7683427734375,-0.416591088867187
2.7218792016071,0.335188232421875,9.78270798339844,-0.493205541992187
2.72390994227552,0.359130249023437,9.78749638671875,-0.44053310546875
2.72594068294393,0.4213794921875,9.77791958007812,-0.450109912109375
2.72790240777033,0.445321508789062,9.77313117675781,-0.3447650390625
2.72986413259673,0.45968671875,9.77791958007812,-0.40222587890625
2.73182585742313,0.483628735351562,9.72045874023437,-0.383072265625
2.73378501692832,0.488417138671875,9.72524714355469,-0.536301171875
2.73574417643351,0.512359155273437,9.70609353027344,-0.411802685546875
2.7377033359387,0.4979939453125,9.71567033691406,-0.435744702148437
2.73972665918086,0.521935961914062,9.6917283203125,-0.507570751953125
2.74174998242302,0.512359155273437,9.69651672363281,-0.488417138671875
2.74377330566517,0.526724365234375,9.72524714355469,-0.536301171875
2.74580026030924,0.521935961914062,9.69651672363281,-0.569819995117188
2.7478272149533,0.512359155273437,9.65342109375,-0.550666381835937
2.74985416959737,0.51714755859375,9.63905588378906,-0.483628735351562
2.75188660612078,0.483628735351562,9.70609353027344,-0.545877978515625
2.75391904264419,0.51714755859375,9.70130512695312,-0.598550415039062
2.75595147916761,0.51714755859375,9.6917283203125,-0.560243188476563
2.7579216136077,0.512359155273437,9.65820949707031,-0.641646044921875
2.7598917480478,0.493205541992187,9.68215151367187,-0.55545478515625
2.76186188248789,0.493205541992187,9.68693991699219,-0.703895288085937
2.76382878211897,0.502782348632812,9.70130512695312,-0.7278373046875
2.76579568175005,0.51714755859375,9.67736311035156,-0.684741674804688
2.76776258138113,0.483628735351562,9.72045874023437,-0.7278373046875
2.76978256391154,0.44053310546875,9.72524714355469,-0.694318481445312
2.77180254644194,0.450109912109375,9.78270798339844,-0.703895288085937
2.77382252897235,0.450109912109375,9.75397756347656,-0.675164868164063
2.77584092285254,0.464475122070312,9.8449572265625,-0.713472094726562
2.77785931673274,0.464475122070312,9.83538041992187,-0.612915625
2.77987771061294,0.44053310546875,9.87847604980469,-0.689530078125
2.78189628602528,0.407014282226562,9.883264453125,-0.627280834960937
2.78391486143763,0.368707055664062,9.91678327636719,-0.665588061523437
2.78593343684997,0.416591088867187,9.93114848632812,-0.675164868164063
2.78789473057827,0.373495458984375,9.95030209960937,-0.675164868164063
2.78985602430657,0.373495458984375,9.92636008300781,-0.660799658203125
2.79181731803487,0.368707055664062,9.93114848632812,-0.59376201171875
2.79377891666767,0.330399829101562,9.93114848632812,-0.636857641601562
2.79574051530047,0.335188232421875,9.9215716796875,-0.679953271484375
2.79770211393327,0.3447650390625,9.93593688964844,-0.723048901367187
2.79972976768761,0.349553442382812,9.90241806640625,-0.742202514648437
2.80175742144195,0.320823022460937,9.91199487304687,-0.694318481445312
2.80378507519629,0.354341845703125,9.94072529296875,-0.713472094726562
2.80581342372056,0.335188232421875,9.89762966308594,-0.694318481445312
2.80784177224484,0.36391865234375,9.84974562988281,-0.660799658203125
2.80987012076912,0.320823022460937,9.90720646972656,-0.679953271484375
2.81189722417624,0.3447650390625,9.85453403320312,-0.660799658203125
2.81392432758336,0.3447650390625,9.83059201660156,-0.608127221679687
2.81595143099048,0.32561142578125,9.86411083984375,-0.5746083984375
2.81791267773527,0.3064578125,9.83538041992187,-0.550666381835937
2.81987392448006,0.359130249023437,9.86889924316406,-0.512359155273437
2.82183517122485,0.373495458984375,9.883264453125,-0.469263525390625
2.82379495193231,0.392649072265625,9.83059201660156,-0.560243188476563
2.82575473263978,0.378283862304687,9.83538041992187,-0.488417138671875
2.82771451334725,0.36391865234375,9.84974562988281,-0.493205541992187
2.82974208658944,0.335188232421875,9.86411083984375,-0.488417138671875
2.83176965983163,0.32561142578125,9.91678327636719,-0.526724365234375
2.83379723307382,0.36391865234375,9.92636008300781,-0.47884033203125
2.83582876714502,0.301669409179687,9.91678327636719,-0.483628735351562
2.83786030121621,0.311246215820312,9.93114848632812,-0.368707055664062
2.8398918352874,0.311246215820312,9.96945571289062,-0.40222587890625
2.84192519531344,0.282515795898438,10.0029745361328,-0.464475122070312
2.84395855533948,0.258573779296875,10.0173397460938,-0.426167895507812
2.84599191536552,0.220266552734375,10.0221281494141,-0.392649072265625
2.84796066286988,0.181959326171875,10.0029745361328,-0.416591088867187
2.84992941037425,0.158017309570312,10.0556469726563,-0.397437475585937
2.85189815787862,0.13407529296875,10.0556469726563,-0.407014282226562
2.85386716145933,0.17238251953125,10.0843773925781,-0.383072265625
2.85583616504005,0.143652099609375,10.0173397460938,-0.368707055664062
2.85780516862076,0.110133276367187,10.036493359375,-0.44053310546875
2.85984309624663,0.086191259765625,10.0604353759766,-0.359130249023437
2.86188102387249,0.076614453125,10.0221281494141,-0.378283862304687
2.86391895149836,0.028730419921875,10.0412817626953,-0.36391865234375
2.86595956879436,0.0047884033203125,10.0317049560547,-0.373495458984375
2.86800018609036,0.05746083984375,10.0029745361328,-0.4213794921875
2.87004080338636,0.0383072265625,9.9981861328125,-0.320823022460937
2.87208319509644,0.0239420166015625,9.96945571289062,-0.359130249023437
2.87412558680652,0.0239420166015625,9.98382092285156,-0.335188232421875
2.87616797851661,0.01915361328125,9.96945571289062,-0.373495458984375
2.87813094281785,0.0143652099609375,9.94551369628906,-0.36391865234375
2.88009390711909,-0.009576806640625,9.95987890625,-0.407014282226562
2.88205687142033,-0.05746083984375,9.94551369628906,-0.373495458984375
2.8840189556217,-0.047884033203125,9.93593688964844,-0.392649072265625
2.88598103982307,-0.067037646484375,9.95509050292969,-0.383072265625
2.88794312402445,-0.0383072265625,9.93114848632812,-0.383072265625
2.88996467285256,-0.076614453125,9.93114848632812,-0.335188232421875
2.89198622168067,-0.0718260498046875,9.93114848632812,-0.339976635742188
2.89400777050878,-0.1149216796875,9.90241806640625,-0.28730419921875
2.89603501920669,-0.1149216796875,9.92636008300781,-0.316034619140625
2.89806226790461,-0.129286889648437,9.93593688964844,-0.296881005859375
2.90008951660252,-0.1149216796875,9.91678327636719,-0.263362182617187
2.90211709928481,-0.17238251953125,9.93593688964844,-0.21068974609375
2.90414468196711,-0.181959326171875,9.94072529296875,-0.158017309570312
2.9061722646494,-0.0909796630859375,9.93593688964844,-0.181959326171875
2.90815615494891,-0.100556469726563,9.93593688964844,-0.162805712890625
2.91014004524842,-0.124498486328125,9.93114848632812,-0.181959326171875
2.91212393554792,-0.124498486328125,9.95509050292969,-0.181959326171875
2.91410175032657,-0.17238251953125,9.96945571289062,-0.215478149414062
2.91607956510522,-0.143652099609375,9.99339772949219,-0.158017309570312
2.91805737988386,-0.119710083007812,9.96945571289062,-0.0909796630859375
2.92003455338647,-0.119710083007812,9.95509050292969,-0.09576806640625
2.92201172688908,-0.186747729492187,9.98860932617187,-0.124498486328125
2.92398890039169,-0.1915361328125,10.0029745361328,-0.0526724365234375
2.92600351638562,-0.196324536132812,9.98382092285156,-0.0143652099609375
2.92801813237956,-0.17238251953125,9.9981861328125,-0.086191259765625
2.93003274837349,-0.21068974609375,10.0604353759766,-0.0526724365234375
2.93204883626409,-0.201112939453125,9.96945571289062,0.01915361328125
2.93406492415469,-0.196324536132812,9.95030209960937,-0.047884033203125
2.93608101204529,-0.167594116210937,9.98860932617187,-0.0335188232421875
2.93804036588642,-0.186747729492187,9.94551369628906,0.009576806640625
2.93999971972755,-0.196324536132812,9.92636008300781,0.047884033203125
2.94195907356868,-0.17238251953125,9.9215716796875,0.0430956298828125
2.9439165080305,-0.186747729492187,9.91199487304687,-0.076614453125
2.94587394249231,-0.21068974609375,9.93593688964844,-0.0335188232421875
2.94783137695413,-0.196324536132812,9.9215716796875,-0.13407529296875
2.94979232074752,-0.201112939453125,9.94551369628906,-0.0909796630859375
2.95175326454091,-0.215478149414062,9.93593688964844,-0.0622492431640625
2.9537142083343,-0.239420166015625,9.93114848632812,-0.076614453125
2.95573769889419,-0.292092602539062,9.95509050292969,0.0143652099609375
2.95776118945408,-0.272938989257812,9.96945571289062,0.0047884033203125
2.95978468001397,-0.277727392578125,9.95987890625,0.0430956298828125
2.96180753504867,-0.296881005859375,9.94072529296875,0.01915361328125
2.96383039008337,-0.272938989257812,9.98382092285156,0.0335188232421875
2.96585324511807,-0.316034619140625,9.95987890625,-0.086191259765625
2.96781263585156,-0.320823022460937,9.96466730957031,-0.0335188232421875
2.96977202658506,-0.311246215820312,9.96945571289062,0.0
2.97173141731855,-0.3064578125,9.96466730957031,-0.0383072265625
2.97369006488797,-0.3064578125,9.99339772949219,0.0047884033203125
2.97564871245739,-0.32561142578125,10.036493359375,-0.047884033203125
2.97760736002681,-0.3447650390625,10.0412817626953,0.0143652099609375
2.97956510253982,-0.359130249023437,10.0939541992188,-0.0430956298828125
2.98152284505284,-0.335188232421875,10.0843773925781,-0.05746083984375
2.98348058756585,-0.28730419921875,10.1131078125,-0.0335188232421875
2.9855040541457,-0.330399829101562,10.1274730224609,-0.0622492431640625
2.98752752072554,-0.311246215820312,10.1418382324219,-0.0143652099609375
2.98955098730539,-0.296881005859375,10.1035310058594,-0.0622492431640625
2.99157538313871,-0.339976635742188,10.1705686523437,-0.028730419921875
2.99359977897204,-0.330399829101562,10.1370498291016,-0.067037646484375
2.99562417480536,-0.311246215820312,10.1801454589844,-0.086191259765625
2.99758249739652,-0.292092602539062,10.1801454589844,-0.100556469726563
2.99954081998768,-0.282515795898438,10.1226846191406,-0.0718260498046875
3.00149914257884,-0.253785375976562,10.1753570556641,-0.0430956298828125
3.00345597037832,-0.229843359375,10.189722265625,-0.0526724365234375
3.0054127981778,-0.244208569335937,10.1992990722656,-0.0622492431640625
3.00736962597728,-0.272938989257812,10.1801454589844,-0.05746083984375
3.00932629622465,-0.229843359375,10.1992990722656,-0.0335188232421875
3.01128296647202,-0.181959326171875,10.2184526855469,-0.05746083984375
3.01323963671939,-0.181959326171875,10.2376062988281,0.0143652099609375
3.01526504763516,-0.167594116210937,10.2615483154297,-0.067037646484375
3.01729045855094,-0.138863696289063,10.2807019287109,-0.01915361328125
3.01931586946671,-0.119710083007812,10.3046439453125,-0.0383072265625
3.02134499186252,-0.1149216796875,10.2759135253906,0.0143652099609375
3.02337411425833,-0.110133276367187,10.2184526855469,0.047884033203125
3.02540323665414,-0.110133276367187,10.1992990722656,0.119710083007812
3.0273532842887,-0.0526724365234375,10.2136642822266,0.0430956298828125
3.02930333192326,-0.0383072265625,10.1705686523437,-0.01915361328125
3.03125337955782,-0.0143652099609375,10.1801454589844,0.009576806640625
3.03320114887208,-0.01915361328125,10.1801454589844,0.0239420166015625
3.03514891818634,0.0047884033203125,10.1945106689453,-0.100556469726563
3.03709668750059,-0.01915361328125,10.189722265625,-0.0526724365234375
3.03904264648497,-0.01915361328125,10.1992990722656,-0.086191259765625
3.04098860546935,0.0047884033203125,10.2184526855469,-0.05746083984375
3.04293456445373,-0.009576806640625,10.1226846191406,0.009576806640625
3.04494139366379,-0.028730419921875,10.0891657958984,-0.0239420166015625
3.04694822287384,-0.0143652099609375,10.0843773925781,-0.0047884033203125
3.0489550520839,-0.0239420166015625,10.0173397460938,-0.0383072265625
3.050963350695,-0.0622492431640625,9.98860932617187,-0.0718260498046875
3.05297164930611,-0.028730419921875,10.0269165527344,-0.0239420166015625
3.05497994791722,-0.0526724365234375,9.95030209960937,-0.158017309570312
3.05693383127224,-0.086191259765625,9.94072529296875,-0.0909796630859375
3.05888771462727,-0.0909796630859375,9.93114848632812,-0.0909796630859375
3.06084159798229,-0.110133276367187,9.96945571289062,-0.076614453125
3.06279231206649,-0.119710083007812,9.93593688964844,-0.0335188232421875
3.06474302615068,-0.148440502929687,9.95987890625,0.0
3.06669374023488,-0.181959326171875,9.99339772949219,-0.0047884033203125
3.06864266883732,-0.162805712890625,10.0125513427734,-0.0047884033203125
3.07059159743975,-0.186747729492187,9.99339772949219,-0.0383072265625
3.07254052604219,-0.205901342773437,9.98860932617187,-0.105344873046875
3.07454557161513,-0.17238251953125,9.99339772949219,-0.15322890625
3.07655061718807,-0.186747729492187,9.99339772949219,-0.1915361328125
3.078555662761,-0.167594116210937,10.0508585693359,-0.258573779296875
3.08055984494418,-0.143652099609375,10.0556469726563,-0.21068974609375
3.08256402712736,-0.148440502929687,10.0412817626953,-0.225054956054687
3.08456820931053,-0.15322890625,10.0843773925781,-0.148440502929687
3.08652754687565,-0.143652099609375,10.0748005859375,-0.17238251953125
3.08848688444076,-0.177170922851562,10.0891657958984,-0.162805712890625
3.09044622200588,-0.138863696289063,10.0748005859375,-0.15322890625
3.0923883692498,-0.15322890625,10.0508585693359,-0.167594116210937
3.09433051649372,-0.143652099609375,10.0460701660156,-0.234631762695312
3.09627266373764,-0.124498486328125,10.1274730224609,-0.229843359375
3.0982084410814,-0.105344873046875,10.0939541992188,-0.17238251953125
3.10014421842516,-0.05746083984375,10.0556469726563,-0.186747729492187
3.10207999576892,-0.076614453125,10.0939541992188,-0.138863696289063
3.1040776407342,-0.0526724365234375,10.0652237792969,-0.15322890625
3.10607528569949,-0.01915361328125,10.0987426025391,-0.148440502929687
3.10807293066478,0.0047884033203125,10.0556469726563,-0.177170922851562
3.11007130078197,0.0430956298828125,10.0795889892578,-0.129286889648437
3.11206967089917,0.009576806640625,10.036493359375,-0.129286889648437
3.11406804101637,0.028730419921875,10.0508585693359,-0.124498486328125
3.11602618077332,0.0622492431640625,10.0269165527344,-0.17238251953125
3.11798432053028,0.05746083984375,10.0604353759766,-0.124498486328125
3.11994246028723,0.05746083984375,10.0508585693359,-0.119710083007812
3.12189940191051,0.0622492431640625,9.9981861328125,-0.0909796630859375
3.12385634353378,0.0718260498046875,9.98382092285156,-0.110133276367187
3.12581328515705,0.047884033203125,10.0029745361328,-0.138863696289063
3.12776973014403,0.0718260498046875,9.98860932617187,-0.181959326171875
3.12972617513102,0.0526724365234375,9.93593688964844,-0.119710083007812
3.131682620118,0.086191259765625,9.95030209960937,-0.15322890625
3.13370591113365,0.05746083984375,9.94551369628906,-0.110133276367187
3.1357292021493,0.0622492431640625,10.0077629394531,-0.1149216796875
3.13775249316495,0.0622492431640625,9.98860932617187,-0.167594116210937
3.13977708995314,0.0718260498046875,9.96466730957031,-0.158017309570312
3.14180168674132,0.009576806640625,9.95987890625,-0.201112939453125
3.14382628352951,0.028730419921875,9.98860932617187,-0.143652099609375
3.14578554199306,-0.0239420166015625,9.97903251953125,-0.196324536132812
3.14774480045662,-0.0430956298828125,10.0029745361328,-0.158017309570312
3.14970405892018,-0.086191259765625,10.0125513427734,-0.181959326171875
3.1516620533863,-0.086191259765625,10.0077629394531,-0.1915361328125
3.15362004785243,-0.0430956298828125,9.98860932617187,-0.17238251953125
3.15557804231855,-0.0909796630859375,10.0125513427734,-0.17238251953125
3.15760539540016,-0.13407529296875,10.0029745361328,-0.162805712890625
3.15963274848176,-0.13407529296875,10.0221281494141,-0.0814028564453125
3.16166010156337,-0.09576806640625,10.0652237792969,-0.143652099609375
3.1636912475052,-0.110133276367187,10.0748005859375,-0.13407529296875
3.16572239344703,-0.138863696289063,10.0795889892578,-0.186747729492187
3.16775353938885,-0.124498486328125,10.1035310058594,-0.272938989257812
3.16978507975345,-0.129286889648437,10.1035310058594,-0.28730419921875
3.17181662011804,-0.148440502929687,10.0748005859375,-0.349553442382812
3.17384816048263,-0.138863696289063,9.99339772949219,-0.253785375976562
3.17579978656768,-0.13407529296875,10.0125513427734,-0.229843359375
3.17775141265273,-0.17238251953125,10.0891657958984,-0.225054956054687
3.17970303873778,-0.15322890625,10.1035310058594,-0.258573779296875
3.18165200965795,-0.1149216796875,10.0987426025391,-0.21068974609375
3.18360098057811,-0.143652099609375,10.1178962158203,-0.277727392578125
3.18554995149827,-0.148440502929687,10.1083194091797,-0.244208569335937
3.18749712055209,-0.1149216796875,10.0795889892578,-0.229843359375
3.18944428960591,-0.143652099609375,10.1083194091797,-0.215478149414062
3.19139145865972,-0.067037646484375,10.0843773925781,-0.229843359375
3.19339927886373,-0.09576806640625,10.1083194091797,-0.17238251953125
3.19540709906774,-0.076614453125,10.0843773925781,-0.13407529296875
3.19741491927175,-0.0526724365234375,10.0173397460938,-0.201112939453125
3.19942527984032,-0.0814028564453125,10.0700121826172,-0.21068974609375
3.20143564040889,-0.0239420166015625,10.0077629394531,-0.21068974609375
3.20344600097746,0.01915361328125,9.9981861328125,-0.3064578125
3.20539543522227,0.0143652099609375,9.97424411621094,-0.272938989257812
3.20734486946708,0.01915361328125,9.90720646972656,-0.225054956054687
3.20929430371189,0.0718260498046875,9.94072529296875,-0.282515795898438
3.21124359819972,0.05746083984375,9.92636008300781,-0.24899697265625
3.21319289268755,0.0383072265625,9.91199487304687,-0.196324536132812
3.21514218717539,0.0622492431640625,9.883264453125,-0.263362182617187
3.21709199642017,0.09576806640625,9.91199487304687,-0.229843359375
3.21904180566495,0.110133276367187,9.89762966308594,-0.253785375976562
3.22099161490974,0.105344873046875,9.84974562988281,-0.282515795898438
3.22299550607727,0.110133276367187,9.78749638671875,-0.263362182617187
3.2249993972448,0.0718260498046875,9.83538041992187,-0.277727392578125
3.22700328841233,0.09576806640625,9.75876596679687,-0.32561142578125
3.22900646701476,0.0909796630859375,9.79228479003906,-0.339976635742188
3.23100964561718,0.110133276367187,9.73961235351562,-0.32561142578125
3.2330128242196,0.129286889648437,9.74440075683594,-0.2681505859375
3.23496960362498,0.0814028564453125,9.70130512695312,-0.2681505859375
3.23692638303036,0.0814028564453125,9.71088193359375,-0.277727392578125
3.23888316243574,0.05746083984375,9.70130512695312,-0.354341845703125
3.24083919900257,-0.0047884033203125,9.71567033691406,-0.296881005859375
3.2427952355694,0.009576806640625,9.66778630371094,-0.32561142578125
3.24475127213623,-0.0047884033203125,9.63905588378906,-0.407014282226562
3.24670711859888,-0.0383072265625,9.66778630371094,-0.397437475585937
3.24866296506154,-0.0814028564453125,9.65820949707031,-0.392649072265625
3.25061881152419,-0.0909796630859375,9.67736311035156,-0.32561142578125
3.25264472829936,-0.086191259765625,9.64863269042969,-0.416591088867187
3.25467064507454,-0.110133276367187,9.59117185058594,-0.339976635742188
3.25669656184971,-0.167594116210937,9.66778630371094,-0.368707055664062
3.25872362651986,-0.205901342773437,9.61990227050781,-0.387860668945312
3.26075069119001,-0.225054956054687,9.62469067382813,-0.387860668945312
3.26277775586016,-0.292092602539062,9.60553706054687,-0.378283862304687
3.26473890516574,-0.282515795898438,9.62947907714844,-0.316034619140625
3.26670005447132,-0.296881005859375,9.63905588378906,-0.311246215820312
3.2686612037769,-0.330399829101562,9.576806640625,-0.2681505859375
3.27062175379861,-0.349553442382812,9.64863269042969,-0.272938989257812
3.27258230382032,-0.397437475585937,9.63426748046875,-0.28730419921875
3.27454285384204,-0.40222587890625,9.63426748046875,-0.3064578125
3.27650295865976,-0.435744702148437,9.61990227050781,-0.220266552734375
3.27846306347749,-0.450109912109375,9.6151138671875,-0.253785375976562
3.28042316829521,-0.464475122070312,9.60074865722656,-0.258573779296875
3.28244889702785,-0.531512768554687,9.63426748046875,-0.24899697265625
3.28447462576048,-0.493205541992187,9.59117185058594,-0.258573779296875
3.28650035449311,-0.550666381835937,9.61990227050781,-0.2681505859375
3.28852979264415,-0.560243188476563,9.62469067382813,-0.186747729492187
3.29055923079519,-0.521935961914062,9.66778630371094,-0.239420166015625
3.29258866894622,-0.526724365234375,9.63426748046875,-0.17238251953125
3.29455454806945,-0.526724365234375,9.63905588378906,-0.229843359375
3.29652042719268,-0.507570751953125,9.63426748046875,-0.181959326171875
3.29848630631591,-0.512359155273437,9.62947907714844,-0.17238251953125
3.30045261328204,-0.502782348632812,9.60074865722656,-0.244208569335937
3.30241892024818,-0.464475122070312,9.63905588378906,-0.181959326171875
3.30438522721431,-0.45968671875,9.62469067382813,-0.229843359375
3.30635299142871,-0.469263525390625,9.6917283203125,-0.225054956054687
3.30832075564312,-0.469263525390625,9.65342109375,-0.177170922851562
3.31028851985752,-0.411802685546875,9.70130512695312,-0.21068974609375
3.31232732866829,-0.411802685546875,9.65342109375,-0.1915361328125
3.31436613747906,-0.397437475585937,9.68693991699219,-0.177170922851562
3.31640494628982,-0.407014282226562,9.74440075683594,-0.138863696289063
3.31844646777419,-0.373495458984375,9.68215151367187,-0.13407529296875
3.32048798925856,-0.3064578125,9.71567033691406,-0.13407529296875
3.32252951074292,-0.3064578125,9.71567033691406,-0.13407529296875
3.32450247840787,-0.272938989257812,9.74440075683594,-0.215478149414062
3.32647544607281,-0.253785375976562,9.77313117675781,-0.167594116210937
3.32844841373776,-0.234631762695312,9.78749638671875,-0.239420166015625
3.33041904665879,-0.215478149414062,9.82101520996094,-0.21068974609375
3.33238967957982,-0.1915361328125,9.80186159667969,-0.225054956054687
3.33436031250085,-0.21068974609375,9.80186159667969,-0.205901342773437
3.33633222949307,-0.201112939453125,9.87368764648437,-0.292092602539062
3.33830414648529,-0.162805712890625,9.90241806640625,-0.253785375976562
3.34027606347752,-0.17238251953125,9.90720646972656,-0.253785375976562
3.34230897092107,-0.167594116210937,9.92636008300781,-0.24899697265625
3.34434187836462,-0.148440502929687,9.95987890625,-0.253785375976562
3.34637478580817,-0.21068974609375,9.95030209960937,-0.181959326171875
3.34841200401562,-0.196324536132812,9.94551369628906,-0.225054956054687
3.35044922222308,-0.24899697265625,9.95987890625,-0.239420166015625
3.35248644043054,-0.24899697265625,9.96466730957031,-0.239420166015625
3.35446373513541,-0.244208569335937,9.97424411621094,-0.201112939453125
3.35644102984027,-0.272938989257812,9.94551369628906,-0.201112939453125
3.35841832454514,-0.234631762695312,9.97424411621094,-0.177170922851562
3.36038973925868,-0.258573779296875,9.97903251953125,-0.129286889648437
3.36236115397223,-0.272938989257812,9.95987890625,-0.158017309570312
3.36433256868577,-0.272938989257812,9.92636008300781,-0.124498486328125
3.36630163129428,-0.258573779296875,9.97424411621094,-0.167594116210937
3.36827069390279,-0.282515795898438,9.91199487304687,-0.201112939453125
3.3702397565113,-0.32561142578125,9.90241806640625,-0.167594116210937
3.37225187456685,-0.320823022460937,9.91678327636719,-0.105344873046875
3.37426399262241,-0.335188232421875,9.88805285644531,-0.0814028564453125
3.37627611067796,-0.339976635742188,9.87368764648437,-0.0622492431640625
3.37828951161111,-0.373495458984375,9.87368764648437,-0.076614453125
3.38030291254427,-0.397437475585937,9.8449572265625,-0.05746083984375
3.38231631347742,-0.359130249023437,9.89284125976562,-0.124498486328125
3.38427508420223,-0.397437475585937,9.85932243652344,-0.0143652099609375
3.38623385492705,-0.40222587890625,9.81622680664062,-0.028730419921875
3.38819262565187,-0.383072265625,9.81622680664062,0.047884033203125
3.39014996549561,-0.40222587890625,9.86411083984375,0.01915361328125
3.39210730533936,-0.40222587890625,9.85453403320312,0.0622492431640625
3.39406464518311,-0.445321508789062,9.86889924316406,0.181959326171875
3.39602173828208,-0.426167895507812,9.88805285644531,0.105344873046875
3.39797883138105,-0.469263525390625,9.8449572265625,0.067037646484375
3.39993592448002,-0.47884033203125,9.83538041992187,0.0335188232421875
3.40195944129861,-0.51714755859375,9.84974562988281,0.110133276367187
3.4039829581172,-0.493205541992187,9.8449572265625,0.105344873046875
3.40600647493579,-0.526724365234375,9.91199487304687,0.21068974609375
3.40802947743146,-0.454898315429687,9.89762966308594,0.162805712890625
3.41005247992712,-0.507570751953125,9.88805285644531,0.258573779296875
3.41207548242278,-0.51714755859375,9.88805285644531,0.17238251953125
3.41403299631164,-0.531512768554687,9.93593688964844,0.196324536132812
3.4159905102005,-0.536301171875,9.91199487304687,0.138863696289063
3.41794802408936,-0.536301171875,9.91199487304687,0.124498486328125
3.41990116721001,-0.531512768554687,9.92636008300781,0.15322890625
3.42185431033067,-0.521935961914062,9.95030209960937,0.196324536132812
3.42380745345133,-0.531512768554687,9.95030209960937,0.17238251953125
3.42575861577772,-0.531512768554687,9.97903251953125,0.234631762695312
3.42770977810411,-0.521935961914062,10.0029745361328,0.229843359375
3.42966094043049,-0.493205541992187,10.0412817626953,0.258573779296875
3.43167786914144,-0.502782348632812,10.0412817626953,0.24899697265625
3.43369479785239,-0.47884033203125,10.0556469726563,0.359130249023437
3.43571172656334,-0.507570751953125,10.0700121826172,0.335188232421875
3.43772787467534,-0.454898315429687,10.1178962158203,0.354341845703125
3.43974402278733,-0.45968671875,10.1131078125,0.277727392578125
3.44176017089933,-0.474051928710937,10.1657802490234,0.292092602539062
3.44371841840367,-0.45968671875,10.1657802490234,0.292092602539062
3.44567666590801,-0.416591088867187,10.2040874755859,0.234631762695312
3.44763491341234,-0.378283862304687,10.2136642822266,0.215478149414062
3.44959345931075,-0.368707055664062,10.2136642822266,0.138863696289063
3.45155200520916,-0.320823022460937,10.2328178955078,0.143652099609375
3.45351055110757,-0.311246215820312,10.2184526855469,0.143652099609375
3.45546858810845,-0.263362182617187,10.2184526855469,0.0718260498046875
3.45742662510933,-0.24899697265625,10.1562034423828,0.177170922851562
3.45938466211021,-0.220266552734375,10.2280294921875,0.162805712890625
3.46140893522219,-0.215478149414062,10.1753570556641,0.143652099609375
3.46343320833417,-0.220266552734375,10.1226846191406,0.124498486328125
3.46545748144615,-0.177170922851562,10.1418382324219,0.01915361328125
3.46748530154165,-0.158017309570312,10.1035310058594,0.0047884033203125
3.46951312163715,-0.13407529296875,10.0460701660156,0.0047884033203125
3.47154094173266,-0.13407529296875,10.0412817626953,0.0047884033203125
3.47350232801735,-0.110133276367187,10.0269165527344,-0.009576806640625
3.47546371430205,-0.1149216796875,9.98382092285156,-0.009576806640625
3.47742510058674,-0.110133276367187,10.0029745361328,0.0047884033203125
3.47938236024387,-0.09576806640625,9.95987890625,-0.0047884033203125
3.48133961990099,-0.0718260498046875,9.96945571289062,0.009576806640625
3.48329687955811,-0.067037646484375,9.96945571289062,0.0430956298828125
3.48525388411542,-0.0909796630859375,9.96945571289062,-0.05746083984375
3.48721088867273,-0.124498486328125,9.96466730957031,0.0335188232421875
3.48916789323005,-0.086191259765625,9.96466730957031,0.0239420166015625
3.49119138216232,-0.0622492431640625,9.95509050292969,0.01915361328125
3.49321487109459,-0.09576806640625,9.98382092285156,0.076614453125
3.49523836002686,-0.086191259765625,9.95509050292969,0.119710083007812
3.49726351106854,-0.0622492431640625,9.97903251953125,0.138863696289063
3.49928866211023,-0.1149216796875,9.97424411621094,0.15322890625
3.50131381315191,-0.100556469726563,9.99339772949219,0.177170922851562
3.50328245931079,-0.129286889648437,9.99339772949219,0.15322890625
3.50525110546967,-0.119710083007812,9.95509050292969,0.105344873046875
3.50721975162855,-0.162805712890625,9.97424411621094,0.09576806640625
3.50918477278742,-0.124498486328125,9.98382092285156,0.0718260498046875
3.51114979394629,-0.13407529296875,9.96945571289062,0.124498486328125
3.51311481510515,-0.167594116210937,10.0269165527344,0.15322890625
3.51507441927185,-0.100556469726563,9.98382092285156,0.1149216796875
3.51703402343855,-0.15322890625,9.97424411621094,0.143652099609375
3.51899362760525,-0.17238251953125,9.97424411621094,0.162805712890625
3.52100729513999,-0.21068974609375,9.97424411621094,0.138863696289063
3.52302096267473,-0.272938989257812,9.96945571289062,0.100556469726563
3.52503463020946,-0.244208569335937,9.97903251953125,0.143652099609375
3.52704981879454,-0.263362182617187,9.94551369628906,0.0814028564453125
3.52906500737962,-0.282515795898438,10.0029745361328,0.0718260498046875
3.53108019596471,-0.335188232421875,10.0029745361328,-0.01915361328125
3.53303905837788,-0.335188232421875,9.9981861328125,-0.0383072265625
3.53499792079106,-0.387860668945312,9.99339772949219,-0.0526724365234375
3.53695678320423,-0.387860668945312,10.0029745361328,-0.0526724365234375
3.53891485763999,-0.397437475585937,10.0221281494141,-0.0718260498046875
3.54087293207575,-0.40222587890625,10.0604353759766,-0.0909796630859375
3.54283100651151,-0.416591088867187,10.0029745361328,-0.124498486328125
3.54479035568685,-0.445321508789062,10.0748005859375,-0.13407529296875
3.5467497048622,-0.426167895507812,10.0460701660156,-0.167594116210937
3.54870905403754,-0.426167895507812,10.0652237792969,-0.138863696289063
3.55073229655056,-0.430956298828125,10.0508585693359,-0.138863696289063
3.55275553906358,-0.373495458984375,10.0748005859375,-0.220266552734375
3.5547787815766,-0.373495458984375,10.0700121826172,-0.181959326171875
3.55680204763564,-0.330399829101562,10.0939541992188,-0.158017309570312
3.55882531369468,-0.335188232421875,10.1131078125,-0.162805712890625
3.56084857975372,-0.316034619140625,10.0652237792969,-0.15322890625
3.56280659125544,-0.225054956054687,10.0939541992188,-0.143652099609375
3.56476460275716,-0.244208569335937,10.1418382324219,-0.124498486328125
3.56672261425888,-0.181959326171875,10.1274730224609,-0.119710083007812
3.56868014062608,-0.201112939453125,10.1131078125,-0.067037646484375
3.57063766699328,-0.15322890625,10.0556469726563,-0.0622492431640625
3.57259519336048,-0.110133276367187,10.0556469726563,-0.05746083984375
3.57455208311743,-0.1149216796875,10.0317049560547,-0.110133276367187
3.57650897287438,-0.0430956298828125,10.0221281494141,-0.05746083984375
3.57846586263133,-0.100556469726563,9.98860932617187,-0.0383072265625
3.5804884873058,-0.0526724365234375,9.95030209960937,-0.119710083007812
3.58251111198028,-0.0239420166015625,9.93593688964844,-0.0909796630859375
3.58453373665475,-0.0143652099609375,9.91678327636719,-0.100556469726563
3.58655709136394,-0.028730419921875,9.9215716796875,-0.05746083984375
3.58858044607314,-0.0143652099609375,9.90720646972656,-0.067037646484375
3.59060380078233,0.0335188232421875,9.883264453125,-0.0239420166015625
3.59255902202797,0.0430956298828125,9.90241806640625,-0.028730419921875
3.59451424327362,0.05746083984375,9.85453403320312,0.067037646484375
3.59646946451926,0.0526724365234375,9.883264453125,-0.0047884033203125
3.59842105501404,0.0718260498046875,9.82580361328125,0.0047884033203125
3.60037264550882,0.0239420166015625,9.81622680664062,-0.009576806640625
3.6023242360036,0.05746083984375,9.79707319335937,-0.0622492431640625
3.60427400553484,0.0430956298828125,9.74440075683594,-0.0383072265625
3.60622377506608,0.0430956298828125,9.80665,-0.05746083984375
3.60817354459732,0.0143652099609375,9.80186159667969,-0.0143652099609375
3.61018906033083,-0.0526724365234375,9.79707319335937,0.009576806640625
3.61220457606434,-0.0622492431640625,9.80665,-0.028730419921875
3.61422009179785,-0.05746083984375,9.83538041992187,0.01915361328125
3.61623877810428,-0.0622492431640625,9.85932243652344,0.009576806640625
3.6182574644107,-0.100556469726563,9.85453403320312,-0.01915361328125
3.62027615071713,-0.129286889648437,9.89762966308594,0.0047884033203125
3.62222502159386,-0.086191259765625,9.94551369628906,-0.0335188232421875
3.62417389247059,-0.124498486328125,9.94072529296875,-0.067037646484375
3.62612276334733,-0.124498486328125,9.96945571289062,-0.09576806640625
3.62806895768324,-0.138863696289063,10.0029745361328,-0.047884033203125
3.63001515201915,-0.1915361328125,10.0173397460938,-0.119710083007812
3.63196134635507,-0.1915361328125,10.036493359375,-0.162805712890625
3.63390576562589,-0.186747729492187,10.0795889892578,-0.177170922851562
3.63585018489672,-0.225054956054687,10.0987426025391,-0.234631762695312
3.63779460416754,-0.263362182617187,10.1466266357422,-0.225054956054687
3.63987888313886,-0.244208569335937,10.1370498291016,-0.258573779296875
3.64196316211019,-0.244208569335937,10.1418382324219,-0.3064578125
3.64404744108151,-0.1915361328125,10.2232410888672,-0.3064578125
3.64613538997476,-0.201112939453125,10.2280294921875,-0.330399829101562
3.64822333886802,-0.15322890625,10.2615483154297,-0.258573779296875
3.65031128776127,-0.148440502929687,10.2376062988281,-0.311246215820312
3.6523537944887,-0.148440502929687,10.2854903320312,-0.3447650390625
3.65439630121614,-0.1149216796875,10.2854903320312,-0.3447650390625
3.65643880794357,-0.086191259765625,10.3046439453125,-0.335188232421875
3.65847582291754,-0.0239420166015625,10.3381627685547,-0.368707055664062
3.66051283789151,0.0047884033203125,10.3381627685547,-0.411802685546875
3.66254985286548,0.0239420166015625,10.2998555419922,-0.378283862304687
3.66458712825613,0.047884033203125,10.2902787353516,-0.397437475585937
3.66662440364678,0.110133276367187,10.26633671875,-0.387860668945312
3.66866167903743,0.181959326171875,10.2615483154297,-0.373495458984375
3.67069771386813,0.234631762695312,10.2615483154297,-0.373495458984375
3.67273374869884,0.215478149414062,10.2280294921875,-0.368707055664062
3.67476978352954,0.292092602539062,10.2232410888672,-0.383072265625
3.6768039840504,0.32561142578125,10.1849338623047,-0.349553442382812
3.67883818457127,0.330399829101562,10.1945106689453,-0.28730419921875
3.68087238509213,0.301669409179687,10.1801454589844,-0.311246215820312
3.68595918690422,0.277727392578125,9.95987890625,-0.143652099609375
3.69104598871631,0.234631762695312,9.96466730957031,-0.158017309570312
3.6961327905284,0.239420166015625,9.94551369628906,-0.196324536132812
3.69816217030272,0.205901342773437,9.94072529296875,-0.129286889648437
3.70019155007704,0.229843359375,9.93593688964844,-0.119710083007812
3.70222092985136,0.158017309570312,9.93593688964844,-0.13407529296875
3.70425063905274,0.15322890625,9.96945571289062,-0.110133276367187
3.70628034825412,0.143652099609375,9.95509050292969,-0.143652099609375
3.70831005745549,0.105344873046875,9.96466730957031,-0.129286889648437
3.71033813303058,0.0047884033203125,9.94551369628906,-0.181959326171875
3.71236620860566,0.047884033203125,9.96945571289062,-0.148440502929687
3.71439428418074,0.0430956298828125,9.94072529296875,-0.162805712890625
3.71639170681527,0.0,9.98382092285156,-0.196324536132812
3.7183891294498,0.0047884033203125,10.0221281494141,-0.220266552734375
3.72038655208434,0.0047884033203125,10.0125513427734,-0.181959326171875
3.7224181528873,-0.0430956298828125,9.99339772949219,-0.28730419921875
3.72444975369026,0.0,10.0556469726563,-0.311246215820312
3.72648135449322,-0.0622492431640625,10.0508585693359,-0.292092602539062
3.72851538210826,-0.05746083984375,10.0843773925781,-0.277727392578125
3.7305494097233,-0.0622492431640625,10.1083194091797,-0.330399829101562
3.73258343733835,-0.0718260498046875,10.1083194091797,-0.407014282226562
3.73461867198462,-0.086191259765625,10.1705686523437,-0.335188232421875
3.7366539066309,-0.0335188232421875,10.1322614257812,-0.368707055664062
3.73868914127718,-0.086191259765625,10.1226846191406,-0.373495458984375
3.74072585145512,-0.0622492431640625,10.1514150390625,-0.392649072265625
3.74276256163307,-0.047884033203125,10.1753570556641,-0.454898315429687
3.74479927181102,-0.0143652099609375,10.1945106689453,-0.450109912109375
3.74680464257926,-0.0335188232421875,10.2088758789062,-0.383072265625
3.74881001334751,-0.0047884033203125,10.2711251220703,-0.430956298828125
3.75081538411575,0.0143652099609375,10.2328178955078,-0.359130249023437
3.75285574197164,0.0239420166015625,10.2376062988281,-0.392649072265625
3.75489609982753,0.100556469726563,10.2184526855469,-0.397437475585937
3.75693645768342,0.100556469726563,10.2184526855469,-0.392649072265625
3.75897846522465,0.1915361328125,10.2471831054687,-0.416591088867187
3.76102047276587,0.1915361328125,10.2376062988281,-0.378283862304687
3.7630624803071,0.272938989257812,10.1849338623047,-0.411802685546875
3.76510570996203,0.292092602539062,10.1849338623047,-0.373495458984375
3.76714893961696,0.316034619140625,10.2040874755859,-0.411802685546875
3.76919216927189,0.339976635742188,10.1322614257812,-0.4213794921875
3.77123699788518,0.416591088867187,10.1801454589844,-0.44053310546875
3.77328182649848,0.40222587890625,10.0987426025391,-0.354341845703125
3.77532665511177,0.454898315429687,10.1035310058594,-0.4213794921875
3.77733866900066,0.483628735351562,10.0652237792969,-0.411802685546875
3.77935068288955,0.47884033203125,9.99339772949219,-0.330399829101562
3.78136269677844,0.521935961914062,9.97424411621094,-0.36391865234375
3.78338920431969,0.51714755859375,9.94551369628906,-0.378283862304687
3.78541571186094,0.5746083984375,9.95509050292969,-0.435744702148437
3.78744221940218,0.59376201171875,9.95030209960937,-0.387860668945312
3.78948485568689,0.550666381835937,9.93593688964844,-0.36391865234375
3.7915274919716,0.560243188476563,9.89284125976562,-0.36391865234375
3.79357012825631,0.565031591796875,9.89762966308594,-0.32561142578125
3.79561434592121,0.603338818359375,9.86889924316406,-0.316034619140625
3.79765856358612,0.526724365234375,9.81143840332031,-0.40222587890625
3.79970278125103,0.588973608398437,9.8449572265625,-0.373495458984375
3.80174845350579,0.627280834960937,9.85932243652344,-0.36391865234375
3.80379412576055,0.608127221679687,9.80665,-0.301669409179687
3.80583979801531,0.579396801757812,9.85932243652344,-0.301669409179687
3.80785584027878,0.565031591796875,9.81143840332031,-0.311246215820312
3.80987188254225,0.5746083984375,9.8449572265625,-0.234631762695312
3.81188792480572,0.579396801757812,9.84974562988281,-0.36391865234375
3.81391650645719,0.569819995117188,9.78270798339844,-0.387860668945312
3.81594508810866,0.550666381835937,9.78749638671875,-0.263362182617187
3.81797366976014,0.536301171875,9.79228479003906,-0.3064578125
3.81999901850145,0.51714755859375,9.82101520996094,-0.296881005859375
3.82202436724276,0.512359155273437,9.80665,-0.368707055664062
3.82404971598407,0.488417138671875,9.87847604980469,-0.354341845703125
3.82607246403093,0.4979939453125,9.88805285644531,-0.383072265625
3.82809521207779,0.483628735351562,9.87847604980469,-0.272938989257812
3.83011796012465,0.450109912109375,9.89762966308594,-0.36391865234375
3.8321397817935,0.483628735351562,9.90720646972656,-0.258573779296875
3.83416160346235,0.464475122070312,9.90720646972656,-0.282515795898438
3.8361834251312,0.47884033203125,9.95509050292969,-0.2681505859375
3.83817741221888,0.44053310546875,9.94072529296875,-0.301669409179687
3.84017139930656,0.445321508789062,9.98382092285156,-0.244208569335937
3.84216538639424,0.407014282226562,10.0029745361328,-0.296881005859375
3.84419464681091,0.397437475585937,9.98382092285156,-0.3447650390625
3.84622390722759,0.4213794921875,9.96466730957031,-0.373495458984375
3.84825316764426,0.392649072265625,10.0269165527344,-0.3447650390625
3.85028252040032,0.435744702148437,10.0029745361328,-0.36391865234375
3.85231187315638,0.435744702148437,10.0029745361328,-0.445321508789062
3.85434122591244,0.435744702148437,10.0125513427734,-0.45968671875
3.85637141569108,0.4213794921875,9.97903251953125,-0.426167895507812
3.85840160546972,0.464475122070312,10.0269165527344,-0.416591088867187
3.86043179524836,0.454898315429687,10.0604353759766,-0.474051928710937
3.86246148920452,0.474051928710937,10.0317049560547,-0.454898315429687
3.86449118316068,0.454898315429687,10.0556469726563,-0.469263525390625
3.86652087711684,0.488417138671875,10.0987426025391,-0.507570751953125
3.86852209472751,0.512359155273437,10.0891657958984,-0.4979939453125
3.87052331233819,0.545877978515625,10.0508585693359,-0.488417138671875
3.87252452994886,0.579396801757812,10.0508585693359,-0.493205541992187
3.87455698546101,0.5746083984375,10.0556469726563,-0.579396801757812
3.87658944097315,0.598550415039062,10.0269165527344,-0.536301171875
3.8786218964853,0.622492431640625,9.99339772949219,-0.4979939453125
3.88065761056949,0.641646044921875,9.99339772949219,-0.536301171875
3.88269332465368,0.612915625,9.97903251953125,-0.550666381835937
3.88472903873787,0.675164868164063,10.0173397460938,-0.521935961914062
3.88676638813022,0.694318481445312,9.95509050292969,-0.55545478515625
3.88880373752257,0.713472094726562,9.96945571289062,-0.507570751953125
3.89084108691492,0.7278373046875,9.96466730957031,-0.560243188476563
3.89288251058029,0.751779321289062,9.9215716796875,-0.521935961914062
3.89492393424566,0.713472094726562,9.90241806640625,-0.588973608398437
3.89696535791103,0.732625708007812,9.89762966308594,-0.579396801757812
3.89897505647874,0.790086547851562,9.90720646972656,-0.507570751953125
3.90098475504645,0.818816967773437,9.91678327636719,-0.512359155273437
3.90299445361416,0.780509741210937,9.9215716796875,-0.531512768554687
3.90503286707985,0.799663354492188,9.88805285644531,-0.469263525390625
3.90707128054555,0.78529814453125,9.90720646972656,-0.4979939453125
3.90910969401125,0.751779321289062,9.91678327636719,-0.483628735351562
3.91114716791532,0.775721337890625,9.91199487304687,-0.536301171875
3.91318464181938,0.7278373046875,9.94072529296875,-0.483628735351562
3.91522211572345,0.751779321289062,9.88805285644531,-0.526724365234375
3.91725862445827,0.713472094726562,9.94551369628906,-0.435744702148437
3.91929513319309,0.675164868164063,9.95509050292969,-0.450109912109375
3.92133164192791,0.679953271484375,9.98382092285156,-0.426167895507812
3.92333288351864,0.627280834960937,9.96945571289062,-0.44053310546875
3.92533412510937,0.59376201171875,9.97424411621094,-0.373495458984375
3.92733536670011,0.598550415039062,9.95030209960937,-0.383072265625
3.92936319384855,0.579396801757812,9.98382092285156,-0.36391865234375
3.93139102099699,0.550666381835937,9.95987890625,-0.392649072265625
3.93341884814544,0.531512768554687,9.95987890625,-0.368707055664062
3.93544947075827,0.560243188476563,9.95509050292969,-0.316034619140625
3.93748009337111,0.51714755859375,9.93593688964844,-0.397437475585937
3.93951071598394,0.507570751953125,9.90241806640625,-0.435744702148437
3.94154176296746,0.4979939453125,9.89762966308594,-0.339976635742188
3.94357280995098,0.469263525390625,9.88805285644531,-0.416591088867187
3.9456038569345,0.45968671875,9.9215716796875,-0.44053310546875
3.94763862961243,0.435744702148437,9.93114848632812,-0.45968671875
3.94967340229037,0.435744702148437,9.92636008300781,-0.45968671875
3.9517081749683,0.435744702148437,9.95509050292969,-0.483628735351562
3.95374321099261,0.368707055664062,9.93593688964844,-0.488417138671875
3.95577824701691,0.349553442382812,9.97424411621094,-0.464475122070312
3.95781328304122,0.411802685546875,9.98382092285156,-0.493205541992187
3.9598761648229,0.397437475585937,9.95509050292969,-0.541089575195312
3.96193904660458,0.368707055664062,9.96945571289062,-0.507570751953125
3.96400192838627,0.3447650390625,9.9981861328125,-0.502782348632812
3.9660332539071,0.387860668945312,9.93114848632812,-0.526724365234375
3.96806457942794,0.407014282226562,9.98382092285156,-0.502782348632812
3.97009590494878,0.44053310546875,9.89284125976562,-0.488417138671875
3.97212589795005,0.430956298828125,9.91199487304687,-0.51714755859375
3.97415589095133,0.44053310546875,9.92636008300781,-0.521935961914062
3.97618588395261,0.464475122070312,9.95509050292969,-0.526724365234375
3.97821316259846,0.521935961914062,9.93114848632812,-0.502782348632812
3.98024044124431,0.507570751953125,9.97424411621094,-0.445321508789062
3.98226771989016,0.5746083984375,9.96466730957031,-0.454898315429687
3.98429381472526,0.622492431640625,9.95030209960937,-0.4979939453125
3.98631990956036,0.656011254882812,9.92636008300781,-0.536301171875
3.98834600439545,0.675164868164063,9.91678327636719,-0.588973608398437
3.99040629405473,0.6512228515625,9.93114848632812,-0.536301171875
3.992466583714,0.732625708007812,9.95987890625,-0.526724365234375
3.99452687337327,0.732625708007812,9.94072529296875,-0.526724365234375
3.99656021690627,0.8044517578125,9.93593688964844,-0.579396801757812
3.99859356043927,0.814028564453125,9.9215716796875,-0.565031591796875
4.00062690397226,0.837970581054687,9.94072529296875,-0.5746083984375
4.00266050233379,0.871489404296875,9.92636008300781,-0.612915625
4.00469410069532,0.895431420898437,9.93114848632812,-0.603338818359375
4.00672769905685,0.909796630859375,9.89762966308594,-0.6512228515625
4.00876150108593,0.866701000976562,9.94072529296875,-0.622492431640625
4.010795303115,0.924161840820312,9.87368764648437,-0.588973608398437
4.01282910514408,0.93852705078125,9.91199487304687,-0.598550415039062
4.01486297162628,0.972045874023437,9.9215716796875,-0.612915625
4.01689683810848,0.962469067382812,9.93593688964844,-0.5746083984375
4.01893070459067,0.905008227539062,9.9215716796875,-0.59376201171875
4.02099584982722,0.9193734375,9.91199487304687,-0.622492431640625
4.02306099506376,0.93852705078125,9.91199487304687,-0.612915625
4.0251261403003,0.948103857421875,9.89284125976562,-0.565031591796875
4.02715653700168,0.93852705078125,9.87368764648437,-0.612915625
4.02918693370306,0.895431420898437,9.91199487304687,-0.584185205078125
4.03121733040444,0.928950244140625,9.93593688964844,-0.55545478515625
4.03324897623778,0.86191259765625,9.89762966308594,-0.545877978515625
4.03528062207111,0.8810662109375,9.91199487304687,-0.617704028320312
4.03731226790444,0.890643017578125,9.90720646972656,-0.636857641601562
4.03934350873559,0.885854614257812,9.91678327636719,-0.588973608398437
4.04137474956675,0.828393774414062,9.883264453125,-0.584185205078125
4.0434059903979,0.852335791015625,9.89762966308594,-0.541089575195312
4.04543713270474,0.852335791015625,9.94551369628906,-0.493205541992187
4.04746827501159,0.852335791015625,9.93114848632812,-0.679953271484375
4.04949941731843,0.847547387695312,9.95030209960937,-0.59376201171875
4.05156317426287,0.837970581054687,9.93593688964844,-0.612915625
4.0536269312073,0.818816967773437,9.91199487304687,-0.684741674804688
4.05569068815174,0.828393774414062,9.89762966308594,-0.713472094726562
4.05772320963613,0.78529814453125,9.97424411621094,-0.679953271484375
4.05975573112052,0.828393774414062,9.96466730957031,-0.660799658203125
4.06178825260491,0.770932934570312,9.95509050292969,-0.694318481445312
4.06381845280024,0.780509741210937,9.97903251953125,-0.713472094726562
4.06584865299557,0.76614453125,9.93114848632812,-0.67037646484375
4.0678788531909,0.794874951171875,9.97424411621094,-0.684741674804688
4.06990744032199,0.751779321289062,9.91678327636719,-0.699106884765625
4.07193602745307,0.751779321289062,9.95987890625,-0.608127221679687
4.07396461458416,0.74699091796875,9.93114848632812,-0.675164868164063
4.07599146039581,0.732625708007812,9.95030209960937,-0.694318481445312
4.07801830620747,0.742202514648437,9.92636008300781,-0.713472094726562
4.08004515201912,0.76614453125,9.91678327636719,-0.689530078125
4.08209888248788,0.794874951171875,9.97903251953125,-0.679953271484375
4.08415261295662,0.790086547851562,9.96466730957031,-0.6512228515625
4.08620634342537,0.794874951171875,9.95030209960937,-0.742202514648437
4.08822771001608,0.780509741210937,9.95987890625,-0.761356127929687
4.09024907660679,0.82360537109375,9.95509050292969,-0.756567724609375
4.09227044319749,0.799663354492188,9.98382092285156,-0.770932934570312
4.09428983018749,0.837970581054687,10.0412817626953,-0.76614453125
4.09630921717748,0.842758984375,10.036493359375,-0.780509741210937
4.09832860416748,0.866701000976562,9.98860932617187,-0.8044517578125
4.10035060411322,0.890643017578125,9.95509050292969,-0.814028564453125
4.10237260405897,0.905008227539062,9.96466730957031,-0.8044517578125
4.10439460400471,0.8810662109375,9.96466730957031,-0.7278373046875
4.10641631163272,0.97683427734375,9.96945571289062,-0.770932934570312
4.10843801926073,0.967257470703125,9.91678327636719,-0.775721337890625
4.11045972688873,0.97683427734375,9.94072529296875,-0.703895288085937
4.11250838992044,0.97683427734375,9.88805285644531,-0.684741674804688
4.11455705295214,0.981622680664062,9.883264453125,-0.679953271484375
4.11660571598384,0.952892260742187,9.87847604980469,-0.694318481445312
4.11862268169566,1.02471831054687,9.86411083984375,-0.742202514648437
4.12063964740749,1.01514150390625,9.86411083984375,-0.67037646484375
4.12265661311932,1.00077629394531,9.91678327636719,-0.703895288085937
4.12467075927818,0.995987890625,9.93593688964844,-0.737414111328125
4.12668490543704,1.03908352050781,9.87847604980469,-0.67037646484375
4.1286990515959,1.01514150390625,9.89762966308594,-0.751779321289062
4.1307114832365,1.04866032714844,9.90241806640625,-0.751779321289062
4.13272391487709,1.02471831054687,9.92636008300781,-0.780509741210937
4.13473634651768,1.01514150390625,9.94072529296875,-0.818816967773437
4.13674710644604,1.00077629394531,9.90720646972656,-0.790086547851562
4.1387578663744,1.01514150390625,9.93114848632812,-0.7278373046875
4.14076862630276,1.01035310058594,9.87847604980469,-0.751779321289062
4.14282430745508,0.967257470703125,9.91199487304687,-0.78529814453125
4.1448799886074,0.97683427734375,9.9215716796875,-0.742202514648437
4.14693566975973,0.943315454101562,9.93593688964844,-0.751779321289062
4.14896925010915,0.97683427734375,9.92636008300781,-0.74699091796875
4.15100283045858,0.924161840820312,9.93114848632812,-0.732625708007812
4.153036410808,0.928950244140625,9.90720646972656,-0.775721337890625
4.1550698432082,0.9576806640625,9.91199487304687,-0.713472094726562
4.15710327560839,0.909796630859375,9.94072529296875,-0.699106884765625
4.15913670800859,0.905008227539062,9.9215716796875,-0.699106884765625
4.16117020014182,0.933738647460937,9.91678327636719,-0.689530078125
4.16320369227505,0.93852705078125,9.89284125976562,-0.684741674804688
4.16523718440828,0.90021982421875,9.91199487304687,-0.718260498046875
4.1672707144647,0.871489404296875,9.89762966308594,-0.70868369140625
4.16930424452111,0.866701000976562,9.91199487304687,-0.689530078125
4.17133777457752,0.890643017578125,9.94551369628906,-0.713472094726562
4.17340440874636,0.8810662109375,9.93114848632812,-0.660799658203125
4.17547104291521,0.86191259765625,9.94551369628906,-0.737414111328125
4.17753767708405,0.86191259765625,9.88805285644531,-0.70868369140625
4.17957175195384,0.847547387695312,9.92636008300781,-0.694318481445312
4.18160582682363,0.842758984375,9.94551369628906,-0.732625708007812
4.18363990169343,0.842758984375,9.93114848632812,-0.699106884765625
4.1856755217021,0.857124194335937,9.95030209960937,-0.723048901367187
4.18771114171077,0.809240161132812,9.96466730957031,-0.780509741210937
4.18974676171945,0.828393774414062,9.98860932617187,-0.770932934570312
4.19178237364436,0.852335791015625,9.95987890625,-0.78529814453125
4.19381798556928,0.837970581054687,9.95509050292969,-0.732625708007812
4.19585359749419,0.833182177734375,9.98860932617187,-0.76614453125
4.19788914838394,0.852335791015625,10.0029745361328,-0.751779321289062
4.19992469927369,0.86191259765625,9.98382092285156,-0.737414111328125
4.20196025016344,0.890643017578125,9.98860932617187,-0.770932934570312
4.20403809456447,0.876277807617187,9.9215716796875,-0.703895288085937
4.20611593896551,0.876277807617187,9.89762966308594,-0.694318481445312
4.20819378336654,0.905008227539062,9.90241806640625,-0.675164868164063
4.21024004752669,0.890643017578125,9.883264453125,-0.756567724609375
4.21228631168683,0.924161840820312,9.86889924316406,-0.713472094726562
4.21433257584698,0.948103857421875,9.87368764648437,-0.699106884765625
4.21637970697763,0.952892260742187,9.82101520996094,-0.732625708007812
4.21842683810828,0.914585034179687,9.81143840332031,-0.699106884765625
4.22047396923892,0.972045874023437,9.8449572265625,-0.718260498046875
4.2225217056213,0.967257470703125,9.8449572265625,-0.699106884765625
4.22456944200367,0.948103857421875,9.87368764648437,-0.694318481445312
4.22661717838605,0.97683427734375,9.87847604980469,-0.742202514648437
4.22866573079491,0.97683427734375,9.86411083984375,-0.723048901367187
4.23071428320376,0.948103857421875,9.883264453125,-0.679953271484375
4.23276283561262,0.952892260742187,9.86411083984375,-0.70868369140625
4.23482821169767,1.01035310058594,9.84974562988281,-0.799663354492188
4.23689358778273,1.03908352050781,9.83059201660156,-0.76614453125
4.23895896386779,1.02471831054687,9.84974562988281,-0.761356127929687
4.24099434109218,0.991199487304687,9.83538041992187,-0.732625708007812
4.24302971831656,1.01514150390625,9.8449572265625,-0.7278373046875
4.24506509554095,1.02950671386719,9.8449572265625,-0.713472094726562
4.24710301855528,1.0342951171875,9.84974562988281,-0.761356127929687
4.24914094156962,1.01514150390625,9.79228479003906,-0.7278373046875
4.25117886458395,1.04866032714844,9.82101520996094,-0.718260498046875
4.25321769422806,1.00556469726562,9.8449572265625,-0.732625708007812
4.25525652387216,1.02471831054687,9.85932243652344,-0.761356127929687
4.25729535351627,1.01514150390625,9.83059201660156,-0.74699091796875
4.25933441417163,1.01514150390625,9.86889924316406,-0.737414111328125
4.261373474827,1.01514150390625,9.86889924316406,-0.775721337890625
4.26341253548236,1.01992990722656,9.87368764648437,-0.76614453125
4.26547552267855,0.995987890625,9.91678327636719,-0.775721337890625
4.26753850987474,0.972045874023437,9.87368764648437,-0.751779321289062
4.26960149707094,0.991199487304687,9.883264453125,-0.737414111328125
4.27163149473805,0.93852705078125,9.92636008300781,-0.684741674804688
4.27366149240517,0.933738647460937,9.93114848632812,-0.7278373046875
4.27569149007229,0.962469067382812,9.95509050292969,-0.689530078125
4.27771756505056,0.943315454101562,9.92636008300781,-0.703895288085937
4.27974364002883,0.967257470703125,9.91678327636719,-0.7278373046875
4.2817697150071,0.962469067382812,9.91199487304687,-0.646434448242187
4.2837918163526,0.952892260742187,9.9215716796875,-0.723048901367187
4.2858139176981,0.895431420898437,9.93593688964844,-0.703895288085937
4.2878360190436,0.876277807617187,9.92636008300781,-0.67037646484375
4.28985923801059,0.885854614257812,9.90241806640625,-0.703895288085937
4.29188245697759,0.876277807617187,9.92636008300781,-0.679953271484375
4.29390567594459,0.86191259765625,9.88805285644531,-0.675164868164063
4.2959661099181,0.86191259765625,9.883264453125,-0.718260498046875
4.29802654389162,0.8810662109375,9.85932243652344,-0.7278373046875
4.30008697786513,0.852335791015625,9.85453403320312,-0.737414111328125
4.30211952457737,0.847547387695312,9.86889924316406,-0.7278373046875
4.30415207128961,0.871489404296875,9.89284125976562,-0.6512228515625
4.30618461800185,0.86191259765625,9.86411083984375,-0.718260498046875
4.30821685915853,0.90021982421875,9.84974562988281,-0.67037646484375
4.3102491003152,0.876277807617187,9.91678327636719,-0.656011254882812
4.31228134147187,0.857124194335937,9.85932243652344,-0.723048901367187
4.31431373291069,0.890643017578125,9.92636008300781,-0.7278373046875
4.3163461243495,0.933738647460937,9.88805285644531,-0.684741674804688
4.31837851578831,0.866701000976562,9.85453403320312,-0.756567724609375
4.32041019357693,0.8810662109375,9.90241806640625,-0.742202514648437
4.32244187136555,0.857124194335937,9.91199487304687,-0.7278373046875
4.32447354915416,0.890643017578125,9.91199487304687,-0.780509741210937
4.32653920231172,0.909796630859375,9.9215716796875,-0.78529814453125
4.32860485546928,0.876277807617187,9.87847604980469,-0.818816967773437
4.33067050862684,0.866701000976562,9.95030209960937,-0.70868369140625
4.33270449012641,0.909796630859375,9.95509050292969,-0.76614453125
4.33473847162598,0.90021982421875,9.93114848632812,-0.794874951171875
4.33677245312555,0.943315454101562,9.95509050292969,-0.713472094726562
4.33880600678223,0.924161840820312,9.96945571289062,-0.7278373046875
4.34083956043891,0.890643017578125,9.95030209960937,-0.679953271484375
4.3428731140956,0.952892260742187,9.95987890625,-0.7278373046875
4.3449059474832,0.909796630859375,9.95509050292969,-0.723048901367187
4.3469387808708,0.933738647460937,9.96466730957031,-0.751779321289062
4.3489716142584,0.9576806640625,9.99339772949219,-0.756567724609375
4.35100406499627,0.948103857421875,9.95509050292969,-0.751779321289062
4.35303651573414,0.933738647460937,9.93114848632812,-0.790086547851562
4.355068966472,0.962469067382812,9.94072529296875,-0.780509741210937
4.35713453705576,0.995987890625,9.95030209960937,-0.718260498046875
4.35920010763952,0.928950244140625,9.94072529296875,-0.74699091796875
4.36126567822328,0.928950244140625,9.95030209960937,-0.713472094726562
4.36330274240515,0.9193734375,9.97903251953125,-0.732625708007812
4.36533980658703,0.90021982421875,9.94072529296875,-0.756567724609375
4.36737687076891,0.885854614257812,9.96466730957031,-0.770932934570312
4.36941382427369,0.86191259765625,9.93593688964844,-0.732625708007812
4.37145077777848,0.837970581054687,9.96945571289062,-0.675164868164063
4.37348773128326,0.818816967773437,9.95030209960937,-0.78529814453125
4.37552429438008,0.82360537109375,9.95987890625,-0.7278373046875
4.37756085747689,0.799663354492188,9.94551369628906,-0.770932934570312
4.3795974205737,0.76614453125,9.93114848632812,-0.74699091796875
4.38163377653073,0.74699091796875,9.95987890625,-0.790086547851562
4.38367013248776,0.718260498046875,9.91678327636719,-0.857124194335937
4.38570648844478,0.7278373046875,9.88805285644531,-0.74699091796875
4.38777181836016,0.713472094726562,9.95987890625,-0.794874951171875
4.38983714827553,0.694318481445312,9.92636008300781,-0.76614453125
4.3919024781909,0.689530078125,9.93114848632812,-0.790086547851562
4.39394409434758,0.694318481445312,9.92636008300781,-0.78529814453125
4.39598571050427,0.665588061523437,9.95030209960937,-0.790086547851562
4.39802732666095,0.67037646484375,9.9215716796875,-0.74699091796875
4.40006851985758,0.679953271484375,9.90241806640625,-0.756567724609375
4.40210971305421,0.675164868164063,9.92636008300781,-0.742202514648437
4.40415090625083,0.70868369140625,9.92636008300781,-0.7278373046875
4.40619454758115,0.679953271484375,9.93593688964844,-0.742202514648437
4.40823818891147,0.689530078125,9.95030209960937,-0.790086547851562
4.41028183024179,0.679953271484375,9.97424411621094,-0.751779321289062
4.41232723106644,0.70868369140625,9.94072529296875,-0.78529814453125
4.41437263189109,0.74699091796875,9.96466730957031,-0.775721337890625
4.41641803271574,0.7278373046875,9.95030209960937,-0.790086547851562
4.4184421778438,0.732625708007812,9.96466730957031,-0.790086547851562
4.42046632297185,0.7278373046875,9.96466730957031,-0.742202514648437
4.42249046809991,0.76614453125,9.96466730957031,-0.76614453125
4.42444198687163,0.775721337890625,9.99339772949219,-0.76614453125
4.42639350564336,0.76614453125,9.94072529296875,-0.799663354492188
4.42834502441508,0.770932934570312,9.95987890625,-0.8044517578125
4.43028655165034,0.790086547851562,9.95509050292969,-0.737414111328125
4.4322280788856,0.82360537109375,9.91199487304687,-0.761356127929687
4.43416960612086,0.761356127929687,9.93114848632812,-0.723048901367187
4.43610261512693,0.842758984375,9.88805285644531,-0.689530078125
4.438035624133,0.770932934570312,9.91199487304687,-0.751779321289062
4.43996863313907,0.775721337890625,9.89284125976562,-0.703895288085937
4.4418995864811,0.799663354492188,9.90720646972656,-0.76614453125
4.44383053982313,0.837970581054687,9.90720646972656,-0.737414111328125
4.44576149316515,0.8044517578125,9.91199487304687,-0.689530078125
4.44775753504882,0.790086547851562,9.91199487304687,-0.713472094726562
4.44975357693249,0.790086547851562,9.94072529296875,-0.799663354492188
4.45174961881617,0.775721337890625,9.92636008300781,-0.76614453125
4.45374650629448,0.756567724609375,9.91678327636719,-0.742202514648437
4.4557433937728,0.775721337890625,9.93114848632812,-0.742202514648437
4.45774028125112,0.751779321289062,9.93593688964844,-0.70868369140625
4.45973320838869,0.756567724609375,9.93114848632812,-0.718260498046875
4.46172613552627,0.756567724609375,9.93593688964844,-0.732625708007812
4.46371906266384,0.737414111328125,9.94072529296875,-0.751779321289062
4.46569393619899,0.675164868164063,9.96466730957031,-0.732625708007812
4.46766880973414,0.732625708007812,9.95509050292969,-0.70868369140625
4.46964368326928,0.689530078125,9.95509050292969,-0.732625708007812
4.47160532519638,0.737414111328125,9.94072529296875,-0.775721337890625
4.47356696712347,0.756567724609375,9.90241806640625,-0.751779321289062
4.47552860905057,0.718260498046875,9.93593688964844,-0.770932934570312
4.47756036339084,0.689530078125,9.92636008300781,-0.703895288085937
4.47959211773112,0.689530078125,9.93593688964844,-0.770932934570312
4.4816238720714,0.737414111328125,9.91678327636719,-0.742202514648437
4.48365898502713,0.694318481445312,9.94072529296875,-0.742202514648437
4.48569409798286,0.679953271484375,9.94551369628906,-0.809240161132812
4.4877292109386,0.699106884765625,9.95987890625,-0.737414111328125
4.48976577224501,0.7278373046875,9.95030209960937,-0.809240161132812
4.49180233355143,0.70868369140625,9.95987890625,-0.775721337890625
4.49383889485784,0.732625708007812,9.95987890625,-0.78529814453125
4.49587444487956,0.732625708007812,9.93593688964844,-0.74699091796875
4.49790999490127,0.713472094726562,9.93114848632812,-0.761356127929687
4.49994554492298,0.699106884765625,9.97903251953125,-0.86191259765625
4.50191656792644,0.703895288085937,9.96945571289062,-0.742202514648437
4.5038875909299,0.713472094726562,10.0029745361328,-0.814028564453125
4.50585861393336,0.713472094726562,9.95030209960937,-0.78529814453125
4.50789270974497,0.699106884765625,9.97903251953125,-0.780509741210937
4.50992680555657,0.703895288085937,9.95509050292969,-0.74699091796875
4.51196090136818,0.732625708007812,9.98382092285156,-0.809240161132812
4.51399584375099,0.718260498046875,9.96945571289062,-0.828393774414062
4.5160307861338,0.679953271484375,9.98382092285156,-0.799663354492188
4.5180657285166,0.742202514648437,9.98860932617187,-0.718260498046875
4.52010077398101,0.70868369140625,9.97903251953125,-0.713472094726562
4.52213581944541,0.7278373046875,9.93114848632812,-0.8044517578125
4.52417086490982,0.718260498046875,9.95987890625,-0.799663354492188
4.52620580468844,0.70868369140625,9.95509050292969,-0.780509741210937
4.52824074446706,0.713472094726562,9.96945571289062,-0.737414111328125
4.53027568424568,0.751779321289062,9.94072529296875,-0.67037646484375
4.53224370757467,0.737414111328125,9.92636008300781,-0.718260498046875
4.53421173090366,0.703895288085937,9.94551369628906,-0.76614453125
4.53617975423265,0.699106884765625,9.97424411621094,-0.699106884765625
4.5381960677092,0.699106884765625,9.90241806640625,-0.74699091796875
4.54021238118575,0.694318481445312,9.89762966308594,-0.703895288085937
4.5422286946623,0.70868369140625,9.90720646972656,-0.699106884765625
4.54426007009636,0.7278373046875,9.87847604980469,-0.751779321289062
4.54629144553041,0.694318481445312,9.85453403320312,-0.713472094726562
4.54832282096447,0.699106884765625,9.85932243652344,-0.723048901367187
4.55035441786117,0.7278373046875,9.88805285644531,-0.70868369140625
4.55238601475787,0.7278373046875,9.883264453125,-0.675164868164063
4.55441761165457,0.703895288085937,9.883264453125,-0.694318481445312
4.55644960568672,0.732625708007812,9.91199487304687,-0.7278373046875
4.55848159971886,0.718260498046875,9.91199487304687,-0.703895288085937
4.56051359375101,0.751779321289062,9.87368764648437,-0.713472094726562
4.56249649490117,0.794874951171875,9.87368764648437,-0.732625708007812
4.56447939605134,0.723048901367187,9.87847604980469,-0.756567724609375
4.5664622972015,0.751779321289062,9.89762966308594,-0.790086547851562
4.56847350227963,0.76614453125,9.89762966308594,-0.723048901367187
4.57048470735776,0.761356127929687,9.87847604980469,-0.78529814453125
4.5724959124359,0.770932934570312,9.93114848632812,-0.751779321289062
4.57451084624669,0.723048901367187,9.90241806640625,-0.713472094726562
4.57652578005748,0.751779321289062,9.86889924316406,-0.76614453125
4.57854071386828,0.732625708007812,9.883264453125,-0.780509741210937
4.5805774096148,0.799663354492188,9.91199487304687,-0.713472094726562
4.58261410536132,0.742202514648437,9.93593688964844,-0.756567724609375
4.58465080110784,0.751779321289062,9.90241806640625,-0.74699091796875
4.58668644292641,0.713472094726562,9.91199487304687,-0.742202514648437
4.58872208474497,0.7278373046875,9.92636008300781,-0.713472094726562
4.59075772656354,0.699106884765625,9.93114848632812,-0.737414111328125
4.59274834092988,0.703895288085937,9.93593688964844,-0.689530078125
4.59473895529622,0.67037646484375,9.97424411621094,-0.713472094726562
4.59672956966256,0.699106884765625,9.93593688964844,-0.742202514648437
4.59875743674157,0.636857641601562,9.88805285644531,-0.718260498046875
4.60078530382058,0.699106884765625,9.94551369628906,-0.718260498046875
4.60281317089959,0.641646044921875,9.96466730957031,-0.675164868164063
4.60484050531803,0.656011254882812,9.95987890625,-0.646434448242187
4.60686783973646,0.656011254882812,9.94551369628906,-0.723048901367187
4.6088951741549,0.67037646484375,9.94551369628906,-0.74699091796875
4.61092308073038,0.627280834960937,9.96466730957031,-0.70868369140625
4.61295098730587,0.617704028320312,9.96466730957031,-0.732625708007812
4.61497889388136,0.636857641601562,9.95509050292969,-0.660799658203125
4.61700608170687,0.598550415039062,9.93114848632812,-0.76614453125
4.61903326953238,0.579396801757812,9.95030209960937,-0.723048901367187
4.62106045735788,0.603338818359375,9.9215716796875,-0.694318481445312
4.62302262087784,0.612915625,9.95987890625,-0.699106884765625
4.6249847843978,0.636857641601562,9.93593688964844,-0.684741674804688
4.62694694791776,0.598550415039062,9.93114848632812,-0.699106884765625
4.62897466428061,0.588973608398437,9.92636008300781,-0.689530078125
4.63100238064347,0.627280834960937,9.92636008300781,-0.63206923828125
4.63303009700633,0.636857641601562,9.90720646972656,-0.713472094726562
4.6350574059256,0.63206923828125,9.89762966308594,-0.703895288085937
4.63708471484487,0.646434448242187,9.90720646972656,-0.737414111328125
4.63911202376414,0.588973608398437,9.91678327636719,-0.636857641601562
4.64114032204971,0.617704028320312,9.93114848632812,-0.694318481445312
4.64316862033528,0.636857641601562,9.91199487304687,-0.713472094726562
4.64519691862085,0.636857641601562,9.94551369628906,-0.617704028320312
4.64722151193681,0.6512228515625,9.91678327636719,-0.665588061523437
4.64924610525278,0.622492431640625,9.95987890625,-0.7278373046875
4.65127069856874,0.641646044921875,9.93114848632812,-0.7278373046875
4.65323150672847,0.627280834960937,9.89284125976562,-0.699106884765625
4.65519231488819,0.67037646484375,9.95509050292969,-0.703895288085937
4.65715312304792,0.636857641601562,9.90720646972656,-0.617704028320312
4.65917725444982,0.63206923828125,9.93114848632812,-0.703895288085937
4.66120138585173,0.636857641601562,9.91199487304687,-0.7278373046875
4.66322551725364,0.608127221679687,9.90720646972656,-0.723048901367187
4.66525314713647,0.646434448242187,9.91678327636719,-0.76614453125
4.6672807770193,0.617704028320312,9.90241806640625,-0.718260498046875
4.66930840690213,0.627280834960937,9.89284125976562,-0.70868369140625
4.6713342827702,0.6512228515625,9.91678327636719,-0.694318481445312
4.67336015863827,0.656011254882812,9.90241806640625,-0.675164868164063
4.67538603450635,0.612915625,9.90720646972656,-0.694318481445312
4.67741172938482,0.63206923828125,9.9215716796875,-0.660799658203125
4.67943742426329,0.584185205078125,9.92636008300781,-0.737414111328125
4.68146311914177,0.603338818359375,9.90241806640625,-0.679953271484375
4.68342736458449,0.617704028320312,9.8449572265625,-0.660799658203125
4.68539161002722,0.598550415039062,9.92636008300781,-0.67037646484375
4.68735585546995,0.579396801757812,9.92636008300781,-0.689530078125
4.68937734505331,0.627280834960937,9.89762966308594,-0.703895288085937
4.69139883463667,0.612915625,9.87847604980469,-0.679953271484375
4.69342032422003,0.612915625,9.9215716796875,-0.713472094726562
4.69545975889885,0.612915625,9.91199487304687,-0.679953271484375
4.69749919357768,0.622492431640625,9.89762966308594,-0.660799658203125
4.69953862825651,0.598550415039062,9.91199487304687,-0.699106884765625
4.70158201182854,0.636857641601562,9.93114848632812,-0.679953271484375
4.70362539540057,0.608127221679687,9.90720646972656,-0.665588061523437
4.70566877897261,0.63206923828125,9.90720646972656,-0.67037646484375
4.70765064323041,0.617704028320312,9.87847604980469,-0.7278373046875
4.70963250748821,0.6512228515625,9.87847604980469,-0.703895288085937
4.71161437174601,0.63206923828125,9.87368764648437,-0.751779321289062
4.71359292523994,0.636857641601562,9.90720646972656,-0.694318481445312
4.71557147873386,0.627280834960937,9.93114848632812,-0.627280834960937
4.71755003222779,0.603338818359375,9.87847604980469,-0.665588061523437
4.71957153092569,0.641646044921875,9.90241806640625,-0.627280834960937
4.72159302962359,0.622492431640625,9.883264453125,-0.656011254882812
4.72361452832149,0.612915625,9.87847604980469,-0.646434448242187
4.72563350401595,0.603338818359375,9.87368764648437,-0.617704028320312
4.7276524797104,0.612915625,9.87847604980469,-0.6512228515625
4.72967145540485,0.59376201171875,9.883264453125,-0.646434448242187
4.73169041297865,0.603338818359375,9.91199487304687,-0.646434448242187
4.73370937055245,0.617704028320312,9.92636008300781,-0.6512228515625
4.73572832812624,0.612915625,9.91199487304687,-0.622492431640625
4.7376883699014,0.584185205078125,9.89284125976562,-0.689530078125
4.73964841167655,0.603338818359375,9.92636008300781,-0.608127221679687
4.7416084534517,0.603338818359375,9.9215716796875,-0.641646044921875
4.74356672678069,0.612915625,9.90241806640625,-0.689530078125
4.74552500010968,0.622492431640625,9.89284125976562,-0.665588061523437
4.74748327343866,0.603338818359375,9.93593688964844,-0.665588061523437
4.74950873383364,0.617704028320312,9.90241806640625,-0.703895288085937
4.75153419422861,0.608127221679687,9.90720646972656,-0.656011254882812
4.75355965462359,0.603338818359375,9.84974562988281,-0.636857641601562
4.75558946712359,0.584185205078125,9.94072529296875,-0.646434448242187
4.75761927962359,0.622492431640625,9.93114848632812,-0.656011254882812
4.7596490921236,0.584185205078125,9.96466730957031,-0.679953271484375
4.76167824327376,0.59376201171875,9.883264453125,-0.622492431640625
4.76370739442393,0.608127221679687,9.883264453125,-0.6512228515625
4.7657365455741,0.612915625,9.92636008300781,-0.627280834960937
4.76770413335623,0.598550415039062,9.883264453125,-0.641646044921875
4.76967172113837,0.603338818359375,9.92636008300781,-0.584185205078125
4.7716393089205,0.617704028320312,9.89762966308594,-0.641646044921875
4.77360711556109,0.5746083984375,9.90720646972656,-0.617704028320312
4.77557492220167,0.569819995117188,9.86411083984375,-0.5746083984375
4.77754272884226,0.603338818359375,9.883264453125,-0.617704028320312
4.7795691682954,0.579396801757812,9.91678327636719,-0.646434448242187
4.78159560774854,0.612915625,9.9215716796875,-0.6512228515625
4.78362204720167,0.622492431640625,9.92636008300781,-0.622492431640625
4.78564902257062,0.675164868164063,9.90241806640625,-0.665588061523437
4.78767599793957,0.656011254882812,9.92636008300781,-0.63206923828125
4.78970297330852,0.67037646484375,9.93593688964844,-0.63206923828125
4.79173042816963,0.656011254882812,9.93114848632812,-0.641646044921875
4.79375788303075,0.718260498046875,9.95030209960937,-0.699106884765625
4.79578533789186,0.656011254882812,9.9215716796875,-0.67037646484375
4.79774656955419,0.684741674804688,9.95030209960937,-0.679953271484375
4.79970780121653,0.689530078125,9.95987890625,-0.684741674804688
4.80166903287886,0.703895288085937,9.95030209960937,-0.656011254882812
4.80363371256639,0.6512228515625,9.97903251953125,-0.660799658203125
4.80559839225392,0.684741674804688,9.90241806640625,-0.67037646484375
4.80756307194144,0.665588061523437,9.95987890625,-0.742202514648437
4.80960152615152,0.684741674804688,9.94551369628906,-0.7278373046875
4.8116399803616,0.636857641601562,9.96466730957031,-0.660799658203125
4.81367843457167,0.617704028320312,9.97424411621094,-0.679953271484375
4.81571941070016,0.617704028320312,9.95509050292969,-0.622492431640625
4.81776038682866,0.617704028320312,9.96466730957031,-0.646434448242187
4.81980136295715,0.67037646484375,9.97424411621094,-0.732625708007812
4.8218440794285,0.641646044921875,9.98860932617187,-0.718260498046875
4.82388679589985,0.622492431640625,9.97424411621094,-0.684741674804688
4.8259295123712,0.636857641601562,9.96466730957031,-0.699106884765625
4.82790792306999,0.6512228515625,9.99339772949219,-0.737414111328125
4.82988633376878,0.636857641601562,10.0125513427734,-0.689530078125
4.83186474446757,0.660799658203125,9.9981861328125,-0.63206923828125
4.83384087033562,0.627280834960937,9.96945571289062,-0.694318481445312
4.83581699620368,0.641646044921875,9.99339772949219,-0.656011254882812
4.83779312207173,0.646434448242187,9.91199487304687,-0.689530078125
4.83981586035297,0.656011254882812,9.94072529296875,-0.70868369140625
4.8418385986342,0.622492431640625,9.9215716796875,-0.732625708007812
4.84386133691544,0.6512228515625,9.95987890625,-0.694318481445312
4.8459012941637,0.665588061523437,9.91678327636719,-0.732625708007812
4.84794125141195,0.622492431640625,9.9215716796875,-0.660799658203125
4.84998120866021,0.660799658203125,9.90720646972656,-0.67037646484375
4.85202312869058,0.67037646484375,9.91199487304687,-0.689530078125
4.85406504872094,0.656011254882812,9.90241806640625,-0.660799658203125
4.85610696875131,0.675164868164063,9.90720646972656,-0.646434448242187
4.85808722819142,0.636857641601562,9.88805285644531,-0.665588061523437
4.86006748763153,0.675164868164063,9.91199487304687,-0.703895288085937
4.86204774707164,0.675164868164063,9.93593688964844,-0.684741674804688
4.86402503711073,0.660799658203125,9.89284125976562,-0.63206923828125
4.86600232714981,0.656011254882812,9.88805285644531,-0.665588061523437
4.86797961718889,0.684741674804688,9.90241806640625,-0.694318481445312
4.87000261849099,0.679953271484375,9.90241806640625,-0.67037646484375
4.8720256197931,0.684741674804688,9.91199487304687,-0.684741674804688
4.8740486210952,0.6512228515625,9.883264453125,-0.689530078125
4.87606863986688,0.656011254882812,9.89762966308594,-0.679953271484375
4.87808865863857,0.665588061523437,9.9215716796875,-0.70868369140625
4.88010867741025,0.679953271484375,9.9215716796875,-0.612915625
4.88212843967153,0.63206923828125,9.90241806640625,-0.67037646484375
4.88414820193282,0.612915625,9.94072529296875,-0.6512228515625
4.8861679641941,0.617704028320312,9.94072529296875,-0.63206923828125
4.88812956336941,0.636857641601562,9.95509050292969,-0.70868369140625
4.89009116254473,0.598550415039062,9.92636008300781,-0.718260498046875
4.89205276172004,0.627280834960937,9.90720646972656,-0.70868369140625
4.89401339963236,0.588973608398437,9.92636008300781,-0.723048901367187
4.89597403754469,0.612915625,9.95987890625,-0.684741674804688
4.89793467545701,0.608127221679687,9.94072529296875,-0.67037646484375
4.89996130599085,0.608127221679687,9.94072529296875,-0.718260498046875
4.9019879365247,0.5746083984375,9.96466730957031,-0.6512228515625
4.90401456705854,0.612915625,9.92636008300781,-0.636857641601562
4.90604556836062,0.608127221679687,9.90720646972656,-0.703895288085937
4.9080765696627,0.627280834960937,9.91199487304687,-0.67037646484375
4.91010757096478,0.598550415039062,9.95509050292969,-0.703895288085937
4.91214061794832,0.641646044921875,9.94551369628906,-0.679953271484375
4.91417366493185,0.646434448242187,9.92636008300781,-0.694318481445312
4.91620671191538,0.656011254882812,9.93114848632812,-0.679953271484375
4.91817349967581,0.675164868164063,9.93593688964844,-0.713472094726562
4.92014028743624,0.63206923828125,9.93114848632812,-0.703895288085937
4.92210707519666,0.622492431640625,9.94072529296875,-0.732625708007812
4.9240746460517,0.641646044921875,9.95030209960937,-0.751779321289062
4.92604221690673,0.660799658203125,9.93593688964844,-0.756567724609375
4.92800978776177,0.6512228515625,9.94551369628906,-0.742202514648437
4.93003605761851,0.656011254882812,9.97424411621094,-0.790086547851562
4.93206232747525,0.641646044921875,9.96466730957031,-0.751779321289062
4.93408859733199,0.6512228515625,9.92636008300781,-0.761356127929687
4.93611617328687,0.684741674804688,9.91199487304687,-0.76614453125
4.93814374924174,0.675164868164063,9.93593688964844,-0.732625708007812
4.94017132519662,0.684741674804688,9.91678327636719,-0.7278373046875
4.94219962076954,0.689530078125,9.88805285644531,-0.775721337890625
4.94422791634247,0.699106884765625,9.93593688964844,-0.74699091796875
4.9462562119154,0.67037646484375,9.95509050292969,-0.742202514648437
4.94821840429821,0.665588061523437,9.94072529296875,-0.751779321289062
4.95018059668102,0.689530078125,9.91199487304687,-0.723048901367187
4.95214278906383,0.622492431640625,9.9215716796875,-0.751779321289062
4.95410396332598,0.684741674804688,9.95030209960937,-0.790086547851562
4.95606513758814,0.67037646484375,9.92636008300781,-0.713472094726562
