timestamp,accel_x (m/s2),accel_y (m/s2),accel_z (m/s2)
0.0029554930012902,-0.359130249023437,9.95987890625,0.349553442382812
0.00591098600258041,-0.32561142578125,9.95030209960937,0.330399829101562
0.00886647900387061,-0.387860668945312,10.0029745361328,0.282515795898438
0.014780970974338,-0.387860668945312,9.98382092285156,0.229843359375
0.0206954629448054,-0.40222587890625,9.96466730957031,0.311246215820312
0.0266099549152727,-0.36391865234375,9.96945571289062,0.32561142578125
0.0325265760090095,-0.354341845703125,9.95987890625,0.330399829101562
0.0384431971027463,-0.426167895507812,9.9981861328125,0.296881005859375
0.044359818196483,-0.392649072265625,9.96466730957031,0.368707055664062
0.0504108023544821,-0.392649072265625,9.97424411621094,0.36391865234375
0.0564617865124812,-0.387860668945312,9.99339772949219,0.387860668945312
0.0625127706704802,-0.411802685546875,9.97903251953125,0.354341845703125
0.0685684842121456,-0.397437475585937,9.94072529296875,0.36391865234375
0.074624197753811,-0.339976635742188,9.99339772949219,0.383072265625
0.0806799112954764,-0.387860668945312,9.95509050292969,0.378283862304687
0.0867401080185459,-0.387860668945312,9.96945571289062,0.316034619140625
0.0928003047416155,-0.411802685546875,9.92636008300781,0.3064578125
0.0988605014646851,-0.411802685546875,9.96945571289062,0.383072265625
0.104925441134829,-0.411802685546875,9.93593688964844,0.378283862304687
0.110990380804973,-0.44053310546875,9.94072529296875,0.3447650390625
0.117055320475117,-0.430956298828125,9.93114848632812,0.383072265625
0.12333781212008,-0.407014282226562,9.93114848632812,0.368707055664062
0.129620303765042,-0.411802685546875,9.92636008300781,0.407014282226562
0.135902795410004,-0.407014282226562,9.96466730957031,0.32561142578125
0.142577478895248,-0.411802685546875,9.95987890625,0.320823022460937
0.149252162380492,-0.397437475585937,9.96466730957031,0.383072265625
0.155926845865736,-0.392649072265625,9.97903251953125,0.335188232421875
0.17595786051415,-0.354341845703125,10.0077629394531,0.296881005859375
0.195988875162565,-0.349553442382812,10.0125513427734,0.335188232421875
0.21601988981098,-0.311246215820312,10.0604353759766,0.296881005859375
0.22270004812259,-0.320823022460937,10.0125513427734,0.316034619140625
0.2293802064342,-0.339976635742188,10.0173397460938,0.3064578125
0.236060364745811,-0.32561142578125,10.0508585693359,0.311246215820312
0.242742518066109,-0.3447650390625,10.0317049560547,0.296881005859375
0.249424671386407,-0.339976635742188,10.0269165527344,0.277727392578125
0.256106824706706,-0.378283862304687,10.0173397460938,0.3447650390625
0.262790868760533,-0.36391865234375,10.0317049560547,0.296881005859375
0.26947491281436,-0.349553442382812,10.0125513427734,0.311246215820312
0.276158956868187,-0.359130249023437,10.0460701660156,0.316034619140625
0.282844934732774,-0.40222587890625,10.036493359375,0.28730419921875
0.289530912597362,-0.416591088867187,10.036493359375,0.320823022460937
0.296216890461949,-0.407014282226562,10.0269165527344,0.277727392578125
0.353056559081712,-0.392649072265625,9.98382092285156,0.339976635742188
0.409896227701476,-0.392649072265625,9.98382092285156,0.330399829101562
0.466735896321239,-0.387860668945312,9.97903251953125,0.32561142578125
0.537326437309692,-0.339976635742188,10.0173397460938,0.3064578125
0.607916978298145,-0.359130249023437,9.98382092285156,0.359130249023437
0.678507519286597,-0.339976635742188,9.98860932617187,0.32561142578125
0.685265575276181,-0.349553442382812,9.98382092285156,0.3447650390625
0.692023631265764,-0.378283862304687,10.0029745361328,0.277727392578125
0.698781687255348,-0.3447650390625,9.95509050292969,0.282515795898438
0.705542813882952,-0.349553442382812,9.96945571289062,0.3064578125
0.712303940510556,-0.339976635742188,10.0077629394531,0.21068974609375
0.71906506713816,-0.36391865234375,10.0029745361328,0.24899697265625
0.725828130072178,-0.349553442382812,9.97903251953125,0.339976635742188
0.732591193006196,-0.330399829101562,9.96945571289062,0.301669409179687
0.739354255940214,-0.359130249023437,10.0029745361328,0.301669409179687
0.746119152424569,-0.3447650390625,9.95987890625,0.277727392578125
0.752884048908925,-0.392649072265625,10.0029745361328,0.3447650390625
0.75964894539328,-0.383072265625,9.9981861328125,0.282515795898438
0.766555547823846,-0.368707055664062,9.9981861328125,0.296881005859375
0.773462150254412,-0.368707055664062,9.97903251953125,0.263362182617187
0.780368752684979,-0.416591088867187,9.98382092285156,0.32561142578125
0.787278846326463,-0.383072265625,10.0029745361328,0.3447650390625
0.794188939967948,-0.383072265625,9.95509050292969,0.296881005859375
0.801099033609432,-0.373495458984375,10.0029745361328,0.258573779296875
0.80801113886118,-0.378283862304687,9.99339772949219,0.330399829101562
0.814923244112928,-0.373495458984375,9.9981861328125,0.282515795898438
0.821835349364676,-0.378283862304687,10.0077629394531,0.301669409179687
0.828749565402006,-0.354341845703125,9.9981861328125,0.225054956054687
0.835663781439337,-0.359130249023437,9.95987890625,0.239420166015625
0.842577997476667,-0.40222587890625,10.0077629394531,0.263362182617187
0.849494087320428,-0.378283862304687,9.98382092285156,0.3064578125
0.856410177164188,-0.416591088867187,9.98382092285156,0.292092602539062
0.863326267007949,-0.411802685546875,9.99339772949219,0.296881005859375
0.870244326795254,-0.387860668945312,9.9981861328125,0.320823022460937
0.877162386582559,-0.368707055664062,10.0077629394531,0.296881005859375
0.884080446369865,-0.397437475585937,9.9981861328125,0.32561142578125
0.904970710367195,-0.416591088867187,10.0077629394531,0.368707055664062
0.925860974364525,-0.411802685546875,9.95987890625,0.292092602539062
0.946751238361855,-0.411802685546875,10.0125513427734,0.335188232421875
0.95374086205976,-0.416591088867187,9.96945571289062,0.397437475585937
0.960730485757665,-0.387860668945312,9.97424411621094,0.354341845703125
0.96772010945557,-0.4213794921875,10.0173397460938,0.383072265625
0.974711741074486,-0.407014282226562,9.98382092285156,0.330399829101562
0.981703372693403,-0.383072265625,9.95987890625,0.349553442382812
0.988695004312319,-0.387860668945312,9.95509050292969,0.378283862304687
0.995688533717706,-0.4213794921875,10.0029745361328,0.311246215820312
1.00268206312309,-0.392649072265625,9.97903251953125,0.378283862304687
1.00967559252848,-0.40222587890625,10.0077629394531,0.387860668945312
1.01667095396512,-0.435744702148437,9.96466730957031,0.359130249023437
1.02366631540176,-0.407014282226562,9.98860932617187,0.3447650390625
1.03066167683841,-0.4213794921875,9.99339772949219,0.4213794921875
1.03773071861358,-0.40222587890625,10.0173397460938,0.354341845703125
1.04479976038876,-0.40222587890625,9.98860932617187,0.4213794921875
1.05186880216394,-0.411802685546875,9.9981861328125,0.416591088867187
1.05894269821429,-0.40222587890625,9.96466730957031,0.426167895507812
1.06601659426464,-0.392649072265625,9.96945571289062,0.354341845703125
1.073090490315,-0.411802685546875,9.97903251953125,0.411802685546875
1.08016803816654,-0.387860668945312,9.99339772949219,0.36391865234375
1.08724558601809,-0.407014282226562,10.0173397460938,0.3447650390625
1.09432313386964,-0.4213794921875,9.9981861328125,0.373495458984375
1.10140516935142,-0.416591088867187,9.9981861328125,0.397437475585937
1.1084872048332,-0.416591088867187,9.98860932617187,0.368707055664062
1.11556924031498,-0.416591088867187,10.0029745361328,0.32561142578125
1.12265357028459,-0.426167895507812,10.0221281494141,0.282515795898438
1.12973790025419,-0.416591088867187,10.0508585693359,0.354341845703125
1.1368222302238,-0.426167895507812,10.0077629394531,0.3447650390625
1.14396460847901,-0.40222587890625,10.0029745361328,0.3064578125
1.15110698673423,-0.373495458984375,9.98860932617187,0.36391865234375
1.15824936498944,-0.426167895507812,10.0173397460938,0.387860668945312
1.16539784578369,-0.4213794921875,9.95987890625,0.368707055664062
1.17254632657794,-0.411802685546875,10.0077629394531,0.316034619140625
1.17969480737219,-0.40222587890625,10.0029745361328,0.320823022460937
1.18684641240689,-0.411802685546875,10.0221281494141,0.32561142578125
1.19399801744159,-0.411802685546875,9.99339772949219,0.335188232421875
1.20114962247629,-0.378283862304687,9.98382092285156,0.3064578125
1.20830360294502,-0.430956298828125,10.0269165527344,0.28730419921875
1.21545758341375,-0.40222587890625,9.95030209960937,0.339976635742188
1.22261156388248,-0.411802685546875,10.0125513427734,0.36391865234375
1.22976738484603,-0.426167895507812,9.93114848632812,0.32561142578125
1.23692320580958,-0.426167895507812,9.94551369628906,0.383072265625
1.24407902677314,-0.40222587890625,9.94072529296875,0.339976635742188
1.2513771641429,-0.416591088867187,9.99339772949219,0.378283862304687
1.25867530151267,-0.392649072265625,9.95987890625,0.373495458984375
1.26597343888244,-0.368707055664062,9.94551369628906,0.378283862304687
1.2732753838694,-0.407014282226562,9.98860932617187,0.354341845703125
1.28057732885636,-0.392649072265625,9.95987890625,0.36391865234375
1.28787927384332,-0.40222587890625,9.97903251953125,0.397437475585937
1.29518346340495,-0.4213794921875,9.98860932617187,0.349553442382812
1.30248765296659,-0.407014282226562,9.95030209960937,0.392649072265625
1.30979184252823,-0.392649072265625,9.95987890625,0.32561142578125
1.3170979014475,-0.416591088867187,9.96466730957031,0.28730419921875
1.32440396036678,-0.416591088867187,9.98860932617187,0.311246215820312
1.33171001928605,-0.40222587890625,9.96945571289062,0.368707055664062
1.33901791837458,-0.40222587890625,9.97903251953125,0.32561142578125
1.34632581746312,-0.435744702148437,10.0077629394531,0.3447650390625
1.35363371655166,-0.430956298828125,9.99339772949219,0.311246215820312
1.36109067781465,-0.430956298828125,10.0077629394531,0.392649072265625
1.36854763907765,-0.387860668945312,10.0221281494141,0.335188232421875
1.37600460034065,-0.40222587890625,9.95509050292969,0.282515795898438
1.39838903295779,-0.40222587890625,9.94551369628906,0.244208569335937
1.42077346557492,-0.430956298828125,9.99339772949219,0.320823022460937
1.44315789819206,-0.397437475585937,9.98860932617187,0.36391865234375
1.45062534165995,-0.426167895507812,9.96466730957031,0.378283862304687
1.45809278512784,-0.445321508789062,9.98382092285156,0.378283862304687
1.46556022859573,-0.450109912109375,9.99339772949219,0.354341845703125
1.47303192271463,-0.430956298828125,9.9981861328125,0.373495458984375
1.48050361683354,-0.430956298828125,9.95987890625,0.416591088867187
1.48797531095244,-0.416591088867187,9.97424411621094,0.320823022460937
1.49545067738039,-0.426167895507812,9.99339772949219,0.32561142578125
1.50292604380833,-0.4213794921875,9.98860932617187,0.359130249023437
1.51040141023628,-0.40222587890625,9.9981861328125,0.392649072265625
1.5178802463908,-0.44053310546875,9.98860932617187,0.378283862304687
1.52535908254532,-0.454898315429687,10.0029745361328,0.407014282226562
1.53283791869984,-0.430956298828125,10.0077629394531,0.373495458984375
1.5403298619507,-0.40222587890625,10.0077629394531,0.450109912109375
1.54782180520156,-0.411802685546875,9.97903251953125,0.373495458984375
1.55531374845242,-0.373495458984375,10.0221281494141,0.373495458984375
1.57787270711123,-0.430956298828125,9.98860932617187,0.316034619140625
1.60043166577003,-0.383072265625,9.9981861328125,0.339976635742188
1.62299062442884,-0.450109912109375,9.98382092285156,0.387860668945312
1.6305301382092,-0.383072265625,9.99339772949219,0.387860668945312
1.63806965198957,-0.416591088867187,10.0556469726563,0.373495458984375
1.64560916576994,-0.373495458984375,9.95987890625,0.359130249023437
1.65315097403817,-0.373495458984375,10.0269165527344,0.387860668945312
1.6606927823064,-0.411802685546875,10.0125513427734,0.392649072265625
1.66823459057463,-0.426167895507812,9.99339772949219,0.383072265625
1.67577829836544,-0.392649072265625,9.98382092285156,0.416591088867187
1.68332200615625,-0.411802685546875,9.96945571289062,0.373495458984375
1.69086571394706,-0.397437475585937,9.95987890625,0.335188232421875
1.69841125073092,-0.407014282226562,9.99339772949219,0.4213794921875
1.70595678751478,-0.387860668945312,9.94551369628906,0.383072265625
1.71350232429864,-0.430956298828125,9.94551369628906,0.445321508789062
1.72126860706773,-0.407014282226562,9.98382092285156,0.392649072265625
1.72903488983682,-0.397437475585937,9.97424411621094,0.36391865234375
1.73680117260591,-0.407014282226562,9.95987890625,0.44053310546875
1.74457047837846,-0.349553442382812,9.97424411621094,0.40222587890625
1.75233978415101,-0.392649072265625,9.94551369628906,0.373495458984375
1.76010908992356,-0.411802685546875,9.98382092285156,0.416591088867187
1.76811114656419,-0.392649072265625,9.97424411621094,0.368707055664062
1.77611320320483,-0.373495458984375,9.98382092285156,0.320823022460937
1.78411525984546,-0.407014282226562,9.95030209960937,0.435744702148437
1.79213799074824,-0.40222587890625,9.96466730957031,0.383072265625
1.80016072165103,-0.430956298828125,9.97903251953125,0.359130249023437
1.80818345255381,-0.426167895507812,10.0029745361328,0.387860668945312
1.8162115043116,-0.354341845703125,10.0077629394531,0.40222587890625
1.8242395560694,-0.378283862304687,9.98382092285156,0.392649072265625
1.83226760782719,-0.411802685546875,10.0029745361328,0.349553442382812
1.84029929326556,-0.450109912109375,10.0077629394531,0.316034619140625
1.84833097870393,-0.4213794921875,9.98382092285156,0.349553442382812
1.8563626641423,-0.407014282226562,10.0221281494141,0.330399829101562
1.88046475908586,-0.47884033203125,9.94551369628906,0.373495458984375
1.90456685402942,-0.454898315429687,9.97903251953125,0.387860668945312
1.92866894897298,-0.469263525390625,9.95509050292969,0.3447650390625
1.95278179738877,-0.387860668945312,9.9215716796875,0.407014282226562
1.97689464580456,-0.392649072265625,9.91678327636719,0.407014282226562
2.00100749422035,-0.426167895507812,9.9215716796875,0.387860668945312
2.00904980227155,-0.426167895507812,9.95030209960937,0.335188232421875
2.01709211032276,-0.392649072265625,9.95030209960937,0.450109912109375
2.02513441837397,-0.383072265625,9.93114848632812,0.349553442382812
2.08560691047998,-0.407014282226562,9.96466730957031,0.349553442382812
2.146079402586,-0.411802685546875,9.92636008300781,0.301669409179687
2.20655189469201,-0.373495458984375,9.9981861328125,0.32561142578125
2.21463376773889,-0.416591088867187,9.95030209960937,0.368707055664062
2.22271564078576,-0.383072265625,9.94072529296875,0.32561142578125
2.23079751383264,-0.426167895507812,9.88805285644531,0.349553442382812
2.2389554323439,-0.430956298828125,9.92636008300781,0.387860668945312
2.24711335085517,-0.416591088867187,9.92636008300781,0.359130249023437
2.25527126936643,-0.430956298828125,9.9215716796875,0.3447650390625
2.26343553618501,-0.430956298828125,9.94072529296875,0.3064578125
2.27159980300359,-0.450109912109375,9.91678327636719,0.320823022460937
2.27976406982216,-0.430956298828125,9.90241806640625,0.397437475585937
2.28793305452267,-0.4213794921875,9.89762966308594,0.330399829101562
2.29610203922318,-0.464475122070312,9.93114848632812,0.368707055664062
2.30427102392369,-0.416591088867187,9.9215716796875,0.373495458984375
2.31244361821624,-0.426167895507812,9.91199487304687,0.339976635742188
2.32061621250878,-0.450109912109375,9.89762966308594,0.368707055664062
2.32878880680133,-0.454898315429687,9.91199487304687,0.320823022460937
2.33697877294714,-0.4213794921875,9.92636008300781,0.354341845703125
2.34516873909296,-0.445321508789062,9.95509050292969,0.36391865234375
2.35335870523878,-0.407014282226562,9.95030209960937,0.416591088867187
2.36155506526483,-0.416591088867187,9.92636008300781,0.368707055664062
2.36975142529088,-0.44053310546875,9.98860932617187,0.397437475585937
2.37794778531693,-0.411802685546875,9.9215716796875,0.349553442382812
2.38614834250009,-0.40222587890625,9.92636008300781,0.44053310546875
2.39434889968325,-0.426167895507812,9.94072529296875,0.435744702148437
2.40254945686641,-0.416591088867187,9.92636008300781,0.445321508789062
2.4149925845791,-0.397437475585937,9.96466730957031,0.411802685546875
2.42743571229178,-0.383072265625,9.95030209960937,0.40222587890625
2.43987884000447,-0.397437475585937,9.95509050292969,0.435744702148437
2.44820138232216,-0.387860668945312,9.95987890625,0.430956298828125
2.45652392463985,-0.426167895507812,9.95030209960937,0.378283862304687
2.46484646695754,-0.36391865234375,9.93593688964844,0.430956298828125
2.47317191075095,-0.378283862304687,9.99339772949219,0.378283862304687
2.48149735454436,-0.397437475585937,9.95030209960937,0.426167895507812
2.48982279833777,-0.368707055664062,9.90720646972656,0.45968671875
2.49815017789504,-0.359130249023437,9.94551369628906,0.426167895507812
2.50647755745231,-0.40222587890625,9.93114848632812,0.392649072265625
2.51480493700959,-0.383072265625,9.95509050292969,0.339976635742188
2.52313414892364,-0.368707055664062,9.96466730957031,0.373495458984375
2.53146336083769,-0.359130249023437,9.95509050292969,0.392649072265625
2.53979257275174,-0.383072265625,9.93593688964844,0.311246215820312
2.54812359336805,-0.359130249023437,9.95509050292969,0.311246215820312
2.55645461398436,-0.397437475585937,9.96945571289062,0.339976635742188
2.56478563460067,-0.36391865234375,9.97424411621094,0.354341845703125
2.58990099983505,-0.392649072265625,10.0125513427734,0.36391865234375
2.61501636506943,-0.373495458984375,10.0125513427734,0.426167895507812
2.64013173030381,-0.397437475585937,10.036493359375,0.397437475585937
2.6485473206901,-0.40222587890625,9.9981861328125,0.387860668945312
2.6569629110764,-0.411802685546875,10.0077629394531,0.277727392578125
2.6653785014627,-0.392649072265625,9.9981861328125,0.311246215820312
2.67379789642798,-0.445321508789062,9.9981861328125,0.349553442382812
2.68221729139326,-0.407014282226562,9.9981861328125,0.311246215820312
2.69063668635854,-0.4213794921875,10.0317049560547,0.416591088867187
2.69905995209205,-0.469263525390625,9.9981861328125,0.378283862304687
2.70748321782555,-0.435744702148437,10.0077629394531,0.335188232421875
2.71590648355905,-0.464475122070312,9.97903251953125,0.378283862304687
2.7243332702344,-0.4213794921875,9.9981861328125,0.387860668945312
2.73276005690975,-0.4213794921875,9.95509050292969,0.387860668945312
2.7411868435851,-0.45968671875,9.97903251953125,0.311246215820312
2.74965723941844,-0.450109912109375,9.94551369628906,0.383072265625
2.75812763525178,-0.464475122070312,9.95987890625,0.411802685546875
2.76659803108512,-0.474051928710937,9.95987890625,0.368707055664062
2.77507386311636,-0.407014282226562,9.98382092285156,0.397437475585937
2.78354969514759,-0.445321508789062,9.97424411621094,0.435744702148437
2.79202552717882,-0.430956298828125,9.9215716796875,0.407014282226562
2.80050499690536,-0.426167895507812,9.97903251953125,0.469263525390625
2.80898446663191,-0.407014282226562,9.99339772949219,0.469263525390625
2.81746393635845,-0.454898315429687,9.97424411621094,0.411802685546875
2.82300634787105,-0.454898315429687,9.96945571289062,0.397437475585937
2.82854875938365,-0.474051928710937,9.94551369628906,0.316034619140625
2.83409117089624,-0.435744702148437,9.97903251953125,0.411802685546875
2.83672515516276,-0.445321508789062,9.94072529296875,0.426167895507812
2.83935913942928,-0.430956298828125,9.9981861328125,0.445321508789062
2.8419931236958,-0.4213794921875,9.98382092285156,0.359130249023437
2.84463078786682,-0.435744702148437,9.99339772949219,0.430956298828125
2.84726845203785,-0.430956298828125,9.95030209960937,0.435744702148437
2.84990611620887,-0.392649072265625,9.95509050292969,0.4213794921875
2.85241314073142,-0.397437475585937,9.95509050292969,0.359130249023437
2.85492016525398,-0.40222587890625,9.98860932617187,0.359130249023437
2.85742718977653,-0.397437475585937,9.96945571289062,0.445321508789062
2.85993334005863,-0.411802685546875,9.94551369628906,0.4213794921875
2.86243949034073,-0.397437475585937,10.0125513427734,0.373495458984375
2.86494564062284,-0.3447650390625,9.98382092285156,0.330399829101562
2.86745134765409,-0.407014282226562,9.97903251953125,0.320823022460937
2.86995705468535,-0.373495458984375,9.96945571289062,0.36391865234375
2.8724627617166,-0.349553442382812,9.98860932617187,0.368707055664062
2.87511529372615,-0.368707055664062,9.98382092285156,0.354341845703125
2.87776782573569,-0.354341845703125,9.93593688964844,0.4213794921875
2.88042035774524,-0.368707055664062,9.95987890625,0.3447650390625
2.88286056271485,-0.368707055664062,9.9215716796875,0.335188232421875
2.88530076768447,-0.330399829101562,9.97424411621094,0.354341845703125
2.88774097265409,-0.354341845703125,9.97903251953125,0.397437475585937
2.88979187705946,-0.368707055664062,9.97424411621094,0.3447650390625
2.89184278146484,-0.354341845703125,9.96466730957031,0.339976635742188
2.89389368587021,-0.383072265625,9.95509050292969,0.383072265625
2.89594559197914,-0.387860668945312,9.96945571289062,0.3064578125
2.89799749808807,-0.392649072265625,9.94072529296875,0.292092602539062
2.90004940419701,-0.368707055664062,9.96945571289062,0.368707055664062
2.90210193168181,-0.426167895507812,9.96466730957031,0.387860668945312
2.90415445916662,-0.392649072265625,9.95509050292969,0.354341845703125
2.90620698665143,-0.378283862304687,9.98382092285156,0.32561142578125
2.90826032161238,-0.407014282226562,9.97903251953125,0.354341845703125
2.91031365657334,-0.416591088867187,9.96466730957031,0.339976635742188
2.9123669915343,-0.392649072265625,10.0317049560547,0.339976635742188
2.91965350184252,-0.435744702148437,10.0125513427734,0.430956298828125
2.92694001215075,-0.411802685546875,10.0029745361328,0.3447650390625
2.93422652245897,-0.407014282226562,9.98382092285156,0.378283862304687
2.93634285394769,-0.368707055664062,9.99339772949219,0.373495458984375
2.9384591854364,-0.392649072265625,9.98860932617187,0.378283862304687
2.94057551692512,-0.411802685546875,9.9981861328125,0.383072265625
2.94269390765861,-0.368707055664062,9.93114848632812,0.368707055664062
2.94481229839211,-0.411802685546875,9.98860932617187,0.36391865234375
2.9469306891256,-0.4213794921875,9.97903251953125,0.387860668945312
2.94926309732873,-0.416591088867187,9.97903251953125,0.368707055664062
2.95159550553186,-0.359130249023437,9.97903251953125,0.32561142578125
2.95392791373499,-0.392649072265625,9.94551369628906,0.335188232421875
2.956264632485,-0.416591088867187,9.96466730957031,0.387860668945312
2.958601351235,-0.387860668945312,9.97903251953125,0.36391865234375
2.960938069985,-0.430956298828125,9.95987890625,0.335188232421875
2.96327680577059,-0.430956298828125,10.0077629394531,0.282515795898438
2.96561554155618,-0.4213794921875,9.9981861328125,0.311246215820312
2.96795427734177,-0.397437475585937,9.95987890625,0.330399829101562
2.97029470464213,-0.392649072265625,9.95509050292969,0.373495458984375
2.9726351319425,-0.392649072265625,9.98382092285156,0.32561142578125
2.97497555924286,-0.40222587890625,9.96945571289062,0.359130249023437
2.9773176208748,-0.392649072265625,9.95509050292969,0.335188232421875
2.97965968250674,-0.4213794921875,9.98860932617187,0.36391865234375
2.98200174413869,-0.4213794921875,9.97903251953125,0.311246215820312
2.98434541232447,-0.383072265625,9.93114848632812,0.32561142578125
2.98668908051024,-0.387860668945312,9.97424411621094,0.311246215820312
2.98903274869602,-0.416591088867187,9.99339772949219,0.32561142578125
2.99144032855712,-0.407014282226562,9.98860932617187,0.320823022460937
2.99384790841823,-0.435744702148437,9.95987890625,0.296881005859375
2.99625548827933,-0.445321508789062,9.93114848632812,0.335188232421875
3.01060241464103,-0.407014282226562,9.95987890625,0.330399829101562
3.02494934100273,-0.430956298828125,9.97903251953125,0.335188232421875
3.03929626736443,-0.4213794921875,10.0029745361328,0.349553442382812
3.04167044341967,-0.354341845703125,9.98860932617187,0.36391865234375
3.04404461947492,-0.383072265625,9.9981861328125,0.407014282226562
3.04641879553016,-0.378283862304687,9.98382092285156,0.359130249023437
3.04878871022472,-0.383072265625,9.96466730957031,0.373495458984375
3.05115862491929,-0.426167895507812,9.98860932617187,0.368707055664062
3.05352853961386,-0.373495458984375,9.98382092285156,0.426167895507812
3.05589392678018,-0.368707055664062,9.96466730957031,0.445321508789062
3.05825931394651,-0.359130249023437,9.98860932617187,0.335188232421875
3.06062470111284,-0.407014282226562,9.98860932617187,0.330399829101562
3.06298548284296,-0.392649072265625,10.0029745361328,0.36391865234375
3.06534626457309,-0.407014282226562,10.0317049560547,0.330399829101562
3.06770704630321,-0.387860668945312,10.0029745361328,0.335188232421875
3.07012634778977,-0.3447650390625,10.0077629394531,0.373495458984375
3.07254564927632,-0.36391865234375,10.0173397460938,0.354341845703125
3.07496495076288,-0.359130249023437,10.0077629394531,0.416591088867187
3.07738437898551,-0.368707055664062,9.9981861328125,0.335188232421875
3.07980380720814,-0.387860668945312,9.98382092285156,0.339976635742188
3.08222323543077,-0.387860668945312,10.0173397460938,0.330399829101562
3.08464602248591,-0.4213794921875,9.98860932617187,0.407014282226562
3.08706880954105,-0.36391865234375,10.0077629394531,0.40222587890625
3.08949159659619,-0.378283862304687,9.95987890625,0.387860668945312
3.09191572148768,-0.392649072265625,9.96945571289062,0.378283862304687
3.09433984637917,-0.359130249023437,9.96466730957031,0.373495458984375
3.09676397127066,-0.416591088867187,10.0029745361328,0.383072265625
3.09911939726893,-0.392649072265625,9.9981861328125,0.392649072265625
3.10147482326719,-0.359130249023437,10.0269165527344,0.378283862304687
3.10383024926546,-0.407014282226562,9.97903251953125,0.407014282226562
3.10625055889003,-0.4213794921875,9.97903251953125,0.416591088867187
3.10867086851461,-0.378283862304687,9.9981861328125,0.407014282226562
3.11109117813919,-0.378283862304687,9.96945571289062,0.354341845703125
3.11358997203026,-0.397437475585937,9.9981861328125,0.383072265625
3.11608876592133,-0.392649072265625,10.0269165527344,0.3447650390625
3.1185875598124,-0.368707055664062,10.0317049560547,0.339976635742188
3.12109069105153,-0.40222587890625,9.95987890625,0.40222587890625
3.12359382229065,-0.392649072265625,9.96945571289062,0.4213794921875
3.12609695352978,-0.397437475585937,9.98382092285156,0.354341845703125
3.12860182684792,-0.411802685546875,9.9981861328125,0.36391865234375
3.13110670016605,-0.368707055664062,9.97424411621094,0.40222587890625
3.13361157348419,-0.36391865234375,9.97424411621094,0.407014282226562
3.13611860077369,-0.411802685546875,9.97903251953125,0.392649072265625
3.13862562806319,-0.430956298828125,9.9981861328125,0.392649072265625
3.14113265535269,-0.407014282226562,9.9981861328125,0.392649072265625
3.14363417262703,-0.392649072265625,9.98382092285156,0.445321508789062
3.14613568990137,-0.407014282226562,9.98382092285156,0.430956298828125
3.1486372071757,-0.387860668945312,9.97903251953125,0.4213794921875
3.1560021588142,-0.483628735351562,9.93114848632812,0.311246215820312
3.1633671104527,-0.445321508789062,9.95030209960937,0.339976635742188
3.17073206209119,-0.450109912109375,9.92636008300781,0.28730419921875
3.17317243172009,-0.483628735351562,9.97903251953125,0.296881005859375
3.17561280134898,-0.469263525390625,9.95987890625,0.311246215820312
3.17805317097788,-0.407014282226562,9.96466730957031,0.359130249023437
3.18437825523347,-0.378283862304687,10.0317049560547,0.311246215820312
3.19070333948906,-0.411802685546875,10.0317049560547,0.292092602539062
3.19702842374465,-0.430956298828125,10.0221281494141,0.3447650390625
3.19952767190004,-0.383072265625,10.0173397460938,0.339976635742188
3.20202692005542,-0.416591088867187,10.0221281494141,0.3064578125
3.2045261682108,-0.397437475585937,10.0317049560547,0.354341845703125
3.20702369197382,-0.397437475585937,10.0173397460938,0.349553442382812
3.20952121573684,-0.407014282226562,10.0029745361328,0.354341845703125
3.21201873949985,-0.411802685546875,10.0077629394531,0.354341845703125
3.21451808834968,-0.387860668945312,9.97903251953125,0.368707055664062
3.2170174371995,-0.339976635742188,9.93593688964844,0.32561142578125
3.21951678604933,-0.411802685546875,9.96466730957031,0.359130249023437
3.22201497713005,-0.392649072265625,9.95509050292969,0.411802685546875
3.22451316821078,-0.359130249023437,9.94072529296875,0.411802685546875
3.22701135929151,-0.407014282226562,9.98382092285156,0.383072265625
3.22950988717779,-0.392649072265625,10.0029745361328,0.387860668945312
3.23200841506408,-0.397437475585937,9.94551369628906,0.359130249023437
3.23450694295036,-0.378283862304687,9.97424411621094,0.378283862304687
3.24193006740783,-0.416591088867187,9.93593688964844,0.397437475585937
3.2493531918653,-0.426167895507812,9.95030209960937,0.3447650390625
3.25677631632277,-0.387860668945312,9.98382092285156,0.330399829101562
3.25926772995126,-0.416591088867187,9.95030209960937,0.354341845703125
3.26175914357975,-0.40222587890625,9.96945571289062,0.335188232421875
3.26425055720824,-0.411802685546875,9.97903251953125,0.335188232421875
3.26674222626203,-0.426167895507812,9.95987890625,0.330399829101562
3.26923389531582,-0.426167895507812,9.95030209960937,0.349553442382812
3.2717255643696,-0.426167895507812,9.93114848632812,0.359130249023437
3.27407681664825,-0.44053310546875,9.94551369628906,0.392649072265625
3.2764280689269,-0.397437475585937,9.94551369628906,0.368707055664062
3.27877932120555,-0.454898315429687,9.96945571289062,0.36391865234375
3.28112861189565,-0.435744702148437,9.94072529296875,0.354341845703125
3.28347790258575,-0.454898315429687,9.96466730957031,0.368707055664062
3.28582719327585,-0.430956298828125,10.0221281494141,0.349553442382812
3.2882428520215,-0.40222587890625,9.98860932617187,0.36391865234375
3.29065851076715,-0.454898315429687,9.97903251953125,0.383072265625
3.29307416951281,-0.430956298828125,9.97424411621094,0.330399829101562
3.29549248396593,-0.411802685546875,9.97424411621094,0.339976635742188
3.29791079841906,-0.474051928710937,9.95509050292969,0.320823022460937
3.30032911287219,-0.474051928710937,9.96945571289062,0.292092602539062
3.30282164499026,-0.445321508789062,9.95987890625,0.301669409179687
3.30531417710832,-0.474051928710937,9.95509050292969,0.292092602539062
3.30780670922638,-0.450109912109375,9.95987890625,0.296881005859375
3.31015658368388,-0.426167895507812,9.9981861328125,0.32561142578125
3.31250645814138,-0.488417138671875,9.94072529296875,0.32561142578125
3.31485633259888,-0.445321508789062,9.97424411621094,0.2681505859375
3.31720876262278,-0.44053310546875,9.97903251953125,0.32561142578125
3.31956119264667,-0.411802685546875,9.9981861328125,0.335188232421875
3.32191362267057,-0.4213794921875,10.0221281494141,0.3447650390625
3.32426741996875,-0.44053310546875,10.0125513427734,0.416591088867187
3.32662121726693,-0.430956298828125,9.98860932617187,0.349553442382812
3.32897501456512,-0.430956298828125,9.96466730957031,0.354341845703125
3.33133063869707,-0.40222587890625,9.96945571289062,0.359130249023437
3.33368626282902,-0.397437475585937,10.0173397460938,0.40222587890625
3.33604188696097,-0.378283862304687,10.0460701660156,0.426167895507812
3.33839730373613,-0.368707055664062,9.98860932617187,0.40222587890625
3.34075272051128,-0.383072265625,9.9981861328125,0.407014282226562
3.34310813728644,-0.359130249023437,10.0173397460938,0.335188232421875
3.34547397799827,-0.330399829101562,9.9981861328125,0.387860668945312
3.3478398187101,-0.339976635742188,10.0460701660156,0.36391865234375
3.35020565942193,-0.320823022460937,9.98382092285156,0.378283862304687
3.3537985261754,-0.320823022460937,10.0125513427734,0.359130249023437
3.35739139292887,-0.311246215820312,10.0269165527344,0.320823022460937
3.36098425968234,-0.301669409179687,10.0125513427734,0.277727392578125
3.36338358113415,-0.320823022460937,10.0460701660156,0.292092602539062
3.36578290258597,-0.330399829101562,9.98860932617187,0.3064578125
3.36818222403778,-0.359130249023437,10.0077629394531,0.3447650390625
3.37057296602997,-0.311246215820312,9.95509050292969,0.277727392578125
3.37296370802216,-0.339976635742188,10.0029745361328,0.330399829101562
3.37535445001435,-0.335188232421875,9.98382092285156,0.296881005859375
3.37773148961938,-0.349553442382812,9.98382092285156,0.244208569335937
3.38010852922441,-0.368707055664062,9.97903251953125,0.335188232421875
3.38248556882945,-0.407014282226562,9.97903251953125,0.339976635742188
3.38484794326521,-0.387860668945312,9.96466730957031,0.272938989257812
3.38721031770097,-0.383072265625,9.95987890625,0.359130249023437
3.38957269213674,-0.354341845703125,9.95509050292969,0.32561142578125
3.39199206344753,-0.411802685546875,9.92636008300781,0.215478149414062
3.39441143475833,-0.378283862304687,9.92636008300781,0.335188232421875
3.39683080606912,-0.4213794921875,9.91199487304687,0.320823022460937
3.39926249291808,-0.435744702148437,9.91678327636719,0.292092602539062
3.40169417976704,-0.430956298828125,9.96945571289062,0.354341845703125
3.404125866616,-0.4213794921875,9.91199487304687,0.3447650390625
3.40655971307866,-0.416591088867187,9.94072529296875,0.339976635742188
3.40899355954132,-0.411802685546875,9.97424411621094,0.3447650390625
3.41142740600398,-0.454898315429687,9.96466730957031,0.335188232421875
3.41391612833471,-0.416591088867187,9.95509050292969,0.387860668945312
3.41640485066543,-0.426167895507812,9.95987890625,0.397437475585937
3.41889357299615,-0.430956298828125,9.98382092285156,0.430956298828125
3.42127578930476,-0.416591088867187,9.95987890625,0.416591088867187
3.42365800561336,-0.426167895507812,9.95509050292969,0.354341845703125
3.42604022192197,-0.392649072265625,9.97424411621094,0.407014282226562
3.42831419479522,-0.45968671875,9.98382092285156,0.411802685546875
3.43058816766848,-0.44053310546875,9.96466730957031,0.392649072265625
3.43286214054174,-0.44053310546875,9.97424411621094,0.40222587890625
3.43516746910078,-0.392649072265625,9.99339772949219,0.407014282226562
3.43747279765981,-0.454898315429687,9.98860932617187,0.392649072265625
3.43977812621884,-0.411802685546875,9.98860932617187,0.430956298828125
3.44196314216937,-0.416591088867187,9.98382092285156,0.44053310546875
3.44414815811989,-0.430956298828125,9.97424411621094,0.435744702148437
3.44633317407042,-0.407014282226562,9.97424411621094,0.407014282226562
3.44851111694151,-0.40222587890625,9.98860932617187,0.416591088867187
3.4506890598126,-0.407014282226562,9.9981861328125,0.36391865234375
3.45286700268369,-0.392649072265625,9.9981861328125,0.3447650390625
3.45504372154218,-0.40222587890625,9.96945571289062,0.44053310546875
3.45722044040068,-0.392649072265625,9.95987890625,0.426167895507812
3.45939715925917,-0.407014282226562,9.97424411621094,0.36391865234375
3.46157380298745,-0.383072265625,9.96945571289062,0.40222587890625
3.46375044671572,-0.383072265625,9.9981861328125,0.387860668945312
3.465927090444,-0.36391865234375,10.0029745361328,0.397437475585937
3.46810423345617,-0.383072265625,9.97903251953125,0.4213794921875
3.47028137646833,-0.387860668945312,9.98860932617187,0.464475122070312
3.4724585194805,-0.349553442382812,9.98860932617187,0.359130249023437
3.47463607290934,-0.397437475585937,10.0173397460938,0.407014282226562
3.47681362633817,-0.368707055664062,9.97903251953125,0.383072265625
3.47899117976701,-0.3447650390625,9.9981861328125,0.383072265625
3.48895949628177,-0.445321508789062,9.93593688964844,0.373495458984375
3.49892781279653,-0.435744702148437,9.93593688964844,0.430956298828125
3.5088961293113,-0.416591088867187,9.91199487304687,0.392649072265625
3.51113433207589,-0.416591088867187,9.94551369628906,0.383072265625
3.51337253484048,-0.450109912109375,9.92636008300781,0.416591088867187
3.51561073760507,-0.445321508789062,9.96466730957031,0.430956298828125
3.517847351673,-0.474051928710937,9.95987890625,0.4213794921875
3.52008396574092,-0.450109912109375,9.89284125976562,0.378283862304687
3.52232057980885,-0.450109912109375,9.91678327636719,0.373495458984375
3.52455553855685,-0.464475122070312,9.91199487304687,0.407014282226562
3.52679049730486,-0.464475122070312,9.90720646972656,0.3447650390625
3.52902545605286,-0.44053310546875,9.97424411621094,0.378283862304687
3.53125882740626,-0.45968671875,9.9215716796875,0.354341845703125
3.53349219875965,-0.44053310546875,9.99339772949219,0.40222587890625
3.53572557011304,-0.435744702148437,9.92636008300781,0.378283862304687
3.53795721485744,-0.445321508789062,9.92636008300781,0.368707055664062
3.54018885960184,-0.512359155273437,9.92636008300781,0.411802685546875
3.54242050434624,-0.469263525390625,9.94072529296875,0.373495458984375
3.54469299680891,-0.464475122070312,9.95509050292969,0.397437475585937
3.54696548927158,-0.450109912109375,9.95030209960937,0.40222587890625
3.54923798173425,-0.512359155273437,9.95987890625,0.387860668945312
3.55152328610785,-0.454898315429687,9.92636008300781,0.416591088867187
3.55380859048145,-0.45968671875,9.95509050292969,0.416591088867187
3.55609389485505,-0.430956298828125,9.96466730957031,0.368707055664062
3.55843708658684,-0.464475122070312,9.95030209960937,0.40222587890625
3.56078027831863,-0.445321508789062,9.95987890625,0.383072265625
3.56312347005041,-0.426167895507812,9.9981861328125,0.411802685546875
3.56543370708384,-0.416591088867187,10.0221281494141,0.383072265625
3.56774394411726,-0.4213794921875,10.0029745361328,0.4213794921875
3.57005418115068,-0.397437475585937,9.97903251953125,0.368707055664062
3.57233938015241,-0.387860668945312,10.0077629394531,0.397437475585937
3.57462457915415,-0.397437475585937,10.0173397460938,0.36391865234375
3.57690977815588,-0.40222587890625,10.0125513427734,0.383072265625
3.57919987917584,-0.383072265625,10.0317049560547,0.373495458984375
3.5814899801958,-0.373495458984375,10.0077629394531,0.354341845703125
3.58378008121576,-0.378283862304687,9.97903251953125,0.32561142578125
3.58607230506558,-0.36391865234375,10.0269165527344,0.392649072265625
3.58836452891539,-0.383072265625,10.0125513427734,0.359130249023437
3.5906567527652,-0.387860668945312,10.0460701660156,0.40222587890625
3.5929426158837,-0.383072265625,10.0221281494141,0.373495458984375
3.59522847900219,-0.411802685546875,10.0508585693359,0.373495458984375
3.59751434212069,-0.378283862304687,10.0269165527344,0.3064578125
3.60222663503517,-0.430956298828125,9.98382092285156,0.378283862304687
3.60693892794965,-0.426167895507812,10.0029745361328,0.40222587890625
3.61165122086413,-0.387860668945312,10.0221281494141,0.368707055664062
3.61400520735502,-0.40222587890625,10.0221281494141,0.378283862304687
3.6163591938459,-0.416591088867187,9.99339772949219,0.387860668945312
3.61871318033678,-0.430956298828125,9.97903251953125,0.435744702148437
3.62098378808417,-0.40222587890625,9.99339772949219,0.411802685546875
3.62325439583157,-0.407014282226562,10.0125513427734,0.36391865234375
3.62552500357896,-0.4213794921875,9.98860932617187,0.40222587890625
3.62778965917791,-0.392649072265625,9.99339772949219,0.4213794921875
3.63005431477687,-0.44053310546875,9.99339772949219,0.359130249023437
3.63231897037582,-0.411802685546875,9.96466730957031,0.387860668945312
3.6345825654279,-0.445321508789062,9.9981861328125,0.40222587890625
3.63684616047997,-0.426167895507812,9.96945571289062,0.426167895507812
3.63910975553205,-0.416591088867187,9.95987890625,0.416591088867187
3.64137321364836,-0.430956298828125,9.94072529296875,0.416591088867187
3.64363667176468,-0.392649072265625,9.96945571289062,0.430956298828125
3.645900129881,-0.416591088867187,9.98382092285156,0.407014282226562
3.65295290709452,-0.383072265625,9.97903251953125,0.397437475585937
3.66000568430804,-0.339976635742188,9.97424411621094,0.435744702148437
3.66705846152156,-0.359130249023437,9.98860932617187,0.368707055664062
3.66942965750679,-0.335188232421875,9.98382092285156,0.373495458984375
3.67180085349202,-0.335188232421875,9.98382092285156,0.359130249023437
3.67417204947725,-0.354341845703125,9.99339772949219,0.411802685546875
3.67652799489825,-0.368707055664062,10.0173397460938,0.4213794921875
3.67888394031924,-0.373495458984375,10.0125513427734,0.430956298828125
3.68123988574024,-0.36391865234375,9.96945571289062,0.435744702148437
3.68357486913864,-0.392649072265625,9.98382092285156,0.435744702148437
3.68590985253705,-0.36391865234375,9.96945571289062,0.416591088867187
3.68824483593545,-0.354341845703125,9.97424411621094,0.387860668945312
3.69057896614377,-0.373495458984375,9.95987890625,0.430956298828125
3.69291309635209,-0.36391865234375,9.97424411621094,0.4213794921875
3.69524722656041,-0.354341845703125,9.97903251953125,0.411802685546875
3.69757940570539,-0.373495458984375,9.98860932617187,0.445321508789062
3.69991158485036,-0.368707055664062,10.0077629394531,0.454898315429687
3.70224376399534,-0.354341845703125,9.97903251953125,0.426167895507812
3.70470880913424,-0.359130249023437,9.96466730957031,0.430956298828125
3.70717385427313,-0.354341845703125,9.98382092285156,0.44053310546875
3.70963889941203,-0.378283862304687,9.98382092285156,0.392649072265625
3.71568894465942,-0.383072265625,9.97424411621094,0.4213794921875
3.72173898990682,-0.40222587890625,9.98860932617187,0.411802685546875
3.72778903515422,-0.373495458984375,10.0077629394531,0.407014282226562
3.73019876372409,-0.368707055664062,10.0221281494141,0.378283862304687
3.73260849229395,-0.397437475585937,9.97424411621094,0.416591088867187
3.73501822086382,-0.387860668945312,10.0077629394531,0.411802685546875
3.73739572222015,-0.407014282226562,10.0173397460938,0.4213794921875
3.73977322357647,-0.44053310546875,10.0077629394531,0.383072265625
3.7421507249328,-0.387860668945312,9.97903251953125,0.426167895507812
3.74450216590499,-0.387860668945312,9.97903251953125,0.435744702148437
3.74685360687719,-0.426167895507812,10.0077629394531,0.36391865234375
3.74920504784939,-0.411802685546875,9.98860932617187,0.512359155273437
3.75155357676649,-0.397437475585937,10.0173397460938,0.407014282226562
3.75390210568359,-0.36391865234375,9.96945571289062,0.426167895507812
3.75625063460069,-0.411802685546875,9.98860932617187,0.387860668945312
3.75859719791451,-0.378283862304687,10.0269165527344,0.397437475585937
3.76094376122832,-0.411802685546875,10.0269165527344,0.383072265625
3.76329032454214,-0.4213794921875,10.0412817626953,0.359130249023437
3.77052571294278,-0.392649072265625,10.0173397460938,0.445321508789062
3.77776110134342,-0.387860668945312,9.98860932617187,0.445321508789062
3.78499648974406,-0.387860668945312,9.99339772949219,0.416591088867187
3.78741837233955,-0.4213794921875,9.95987890625,0.483628735351562
3.78984025493505,-0.397437475585937,10.0029745361328,0.373495458984375
3.79226213753054,-0.411802685546875,9.96466730957031,0.445321508789062
3.79468530273236,-0.426167895507812,9.9981861328125,0.330399829101562
3.79710846793417,-0.392649072265625,9.97903251953125,0.454898315429687
3.79953163313598,-0.397437475585937,9.96466730957031,0.426167895507812
3.80195630908001,-0.407014282226562,9.98382092285156,0.426167895507812
3.80438098502403,-0.392649072265625,9.98382092285156,0.426167895507812
3.80680566096805,-0.392649072265625,10.0221281494141,0.416591088867187
3.80923188845287,-0.383072265625,9.98382092285156,0.450109912109375
3.81165811593769,-0.407014282226562,9.98382092285156,0.450109912109375
3.81408434342251,-0.416591088867187,9.97424411621094,0.450109912109375
3.81651003806586,-0.411802685546875,9.95030209960937,0.445321508789062
3.8189357327092,-0.378283862304687,10.0077629394531,0.454898315429687
3.82136142735255,-0.378283862304687,9.96466730957031,0.416591088867187
3.83446779005506,-0.40222587890625,9.96466730957031,0.368707055664062
3.84757415275757,-0.407014282226562,10.0077629394531,0.373495458984375
3.86068051546007,-0.426167895507812,9.96945571289062,0.373495458984375
3.86287003705296,-0.45968671875,9.98382092285156,0.397437475585937
3.86505955864585,-0.40222587890625,9.97424411621094,0.349553442382812
3.86724908023874,-0.435744702148437,9.95987890625,0.44053310546875
3.86943889745878,-0.426167895507812,9.9981861328125,0.40222587890625
3.87162871467883,-0.430956298828125,9.98860932617187,0.407014282226562
3.87381853189888,-0.430956298828125,9.94551369628906,0.426167895507812
3.87602300265624,-0.430956298828125,9.92636008300781,0.411802685546875
3.8782274734136,-0.45968671875,9.98382092285156,0.430956298828125
3.88043194417097,-0.411802685546875,9.94072529296875,0.40222587890625
3.88264326220482,-0.435744702148437,9.95987890625,0.387860668945312
3.88485458023868,-0.426167895507812,9.96466730957031,0.40222587890625
3.88706589827254,-0.435744702148437,9.97903251953125,0.339976635742188
3.88931664013452,-0.450109912109375,9.96945571289062,0.392649072265625
3.89156738199651,-0.44053310546875,9.96945571289062,0.368707055664062
3.89381812385849,-0.47884033203125,9.98382092285156,0.36391865234375
3.89603810926431,-0.474051928710937,9.96945571289062,0.383072265625
3.89825809467013,-0.407014282226562,9.98860932617187,0.311246215820312
3.90047808007594,-0.454898315429687,9.99339772949219,0.320823022460937
3.90274319569996,-0.45968671875,9.96466730957031,0.373495458984375
3.90500831132397,-0.44053310546875,9.98382092285156,0.335188232421875
3.90727342694798,-0.445321508789062,10.0173397460938,0.397437475585937
3.90961558297605,-0.416591088867187,9.9981861328125,0.359130249023437
3.91195773900411,-0.474051928710937,10.0317049560547,0.339976635742188
3.91429989503218,-0.454898315429687,9.95030209960937,0.383072265625
3.91664889289658,-0.426167895507812,9.98382092285156,0.354341845703125
3.91899789076098,-0.469263525390625,10.0077629394531,0.32561142578125
3.92134688862539,-0.416591088867187,9.9981861328125,0.339976635742188
3.92369691712818,-0.435744702148437,9.96466730957031,0.349553442382812
3.92604694563097,-0.387860668945312,9.95509050292969,0.397437475585937
3.92839697413377,-0.426167895507812,9.96466730957031,0.354341845703125
3.9307475630059,-0.392649072265625,9.95509050292969,0.387860668945312
3.93309815187804,-0.416591088867187,9.97424411621094,0.383072265625
3.93544874075018,-0.40222587890625,9.93114848632812,0.335188232421875
3.93779984810794,-0.392649072265625,9.98860932617187,0.397437475585937
3.94015095546571,-0.383072265625,9.95509050292969,0.373495458984375
3.94250206282348,-0.407014282226562,9.96466730957031,0.407014282226562
3.94485350151707,-0.36391865234375,9.95987890625,0.407014282226562
3.94720494021066,-0.411802685546875,9.96466730957031,0.407014282226562
3.94955637890425,-0.373495458984375,9.95509050292969,0.320823022460937
3.95308195797868,-0.383072265625,9.94551369628906,0.373495458984375
3.95660753705311,-0.44053310546875,9.98860932617187,0.368707055664062
3.96013311612754,-0.397437475585937,10.0077629394531,0.40222587890625
3.96738442157462,-0.435744702148437,9.98382092285156,0.435744702148437
3.97463572702171,-0.445321508789062,9.96945571289062,0.44053310546875
3.98188703246879,-0.397437475585937,9.98382092285156,0.450109912109375
3.98430701933947,-0.44053310546875,9.97903251953125,0.387860668945312
3.98672700621015,-0.430956298828125,9.98382092285156,0.4213794921875
3.98914699308082,-0.450109912109375,9.98382092285156,0.392649072265625
3.9915634195131,-0.445321508789062,9.95509050292969,0.397437475585937
3.99397984594538,-0.445321508789062,9.97903251953125,0.45968671875
3.99639627237767,-0.430956298828125,9.93114848632812,0.411802685546875
3.99881141669193,-0.430956298828125,9.98860932617187,0.4213794921875
4.0012265610062,-0.416591088867187,9.97424411621094,0.4213794921875
4.00364170532046,-0.450109912109375,9.97424411621094,0.435744702148437
4.00605563023365,-0.435744702148437,9.95030209960937,0.44053310546875
4.00846955514683,-0.450109912109375,9.96945571289062,0.36391865234375
4.01088348006002,-0.45968671875,9.97424411621094,0.392649072265625
4.01316289423099,-0.411802685546875,10.0460701660156,0.36391865234375
4.01544230840196,-0.378283862304687,10.0029745361328,0.36391865234375
4.01772172257293,-0.430956298828125,9.9981861328125,0.36391865234375
4.02442966213451,-0.387860668945312,10.0460701660156,0.426167895507812
4.03113760169609,-0.426167895507812,10.0460701660156,0.40222587890625
4.03784554125767,-0.426167895507812,10.0556469726563,0.397437475585937
4.04009812925679,-0.36391865234375,10.0460701660156,0.469263525390625
4.04235071725591,-0.426167895507812,10.0556469726563,0.4213794921875
4.04460330525504,-0.387860668945312,10.0269165527344,0.397437475585937
4.04685585299807,-0.426167895507812,10.036493359375,0.354341845703125
4.0491084007411,-0.416591088867187,10.0508585693359,0.407014282226562
4.05136094848413,-0.40222587890625,10.0700121826172,0.411802685546875
4.05361466317596,-0.4213794921875,10.0508585693359,0.416591088867187
4.05586837786778,-0.435744702148437,10.0412817626953,0.349553442382812
4.0581220925596,-0.430956298828125,10.0317049560547,0.392649072265625
4.06037663492072,-0.4213794921875,10.0125513427734,0.392649072265625
4.06263117728183,-0.40222587890625,9.9981861328125,0.387860668945312
4.06488571964294,-0.416591088867187,9.98382092285156,0.373495458984375
4.06728691766814,-0.454898315429687,9.97903251953125,0.411802685546875
4.06968811569333,-0.435744702148437,9.94551369628906,0.387860668945312
4.07208931371852,-0.45968671875,10.0029745361328,0.430956298828125
4.07449658194771,-0.435744702148437,9.97903251953125,0.407014282226562
4.07690385017689,-0.416591088867187,9.94551369628906,0.430956298828125
4.07931111840608,-0.464475122070312,9.93114848632812,0.474051928710937
4.08167136626307,-0.4979939453125,9.94551369628906,0.4213794921875
4.08403161412005,-0.469263525390625,9.91199487304687,0.373495458984375
4.08639186197703,-0.469263525390625,9.93593688964844,0.397437475585937
4.08868829581493,-0.483628735351562,9.91199487304687,0.450109912109375
4.09098472965283,-0.445321508789062,9.89284125976562,0.445321508789062
4.09328116349073,-0.45968671875,9.90241806640625,0.4213794921875
4.09556093405281,-0.435744702148437,9.91678327636719,0.435744702148437
4.09784070461489,-0.493205541992187,9.92636008300781,0.430956298828125
4.10012047517696,-0.469263525390625,9.89762966308594,0.454898315429687
4.10239823987965,-0.450109912109375,9.89762966308594,0.450109912109375
4.10467600458233,-0.445321508789062,9.90720646972656,0.47884033203125
4.10695376928501,-0.430956298828125,9.91199487304687,0.450109912109375
4.11388095597121,-0.378283862304687,9.96945571289062,0.411802685546875
4.12080814265741,-0.383072265625,9.95030209960937,0.40222587890625
4.12773532934361,-0.354341845703125,9.95509050292969,0.464475122070312
4.13005824020516,-0.383072265625,9.94551369628906,0.474051928710937
4.13238115106672,-0.40222587890625,9.95509050292969,0.4213794921875
4.13470406192827,-0.407014282226562,9.96945571289062,0.450109912109375
4.13700617569782,-0.383072265625,10.0029745361328,0.387860668945312
4.13930828946737,-0.426167895507812,9.95030209960937,0.435744702148437
4.14161040323692,-0.378283862304687,9.96945571289062,0.426167895507812
4.14389575007936,-0.373495458984375,9.95987890625,0.450109912109375
4.14618109692181,-0.330399829101562,9.99339772949219,0.392649072265625
4.14846644376425,-0.368707055664062,9.97903251953125,0.387860668945312
4.15080868383587,-0.411802685546875,9.98860932617187,0.3447650390625
4.15315092390749,-0.36391865234375,9.96945571289062,0.392649072265625
4.15549316397912,-0.373495458984375,9.93593688964844,0.36391865234375
4.15783526196089,-0.359130249023437,9.96945571289062,0.383072265625
4.16017735994267,-0.383072265625,10.0173397460938,0.349553442382812
4.16251945792445,-0.378283862304687,9.96466730957031,0.426167895507812
4.16486207918097,-0.349553442382812,9.97424411621094,0.416591088867187
4.16720470043749,-0.36391865234375,9.95509050292969,0.3447650390625
4.16954732169401,-0.359130249023437,9.96945571289062,0.335188232421875
4.17189000642709,-0.397437475585937,9.99339772949219,0.36391865234375
4.17423269116016,-0.392649072265625,9.98382092285156,0.407014282226562
4.17657537589324,-0.383072265625,9.96466730957031,0.339976635742188
4.17888478854516,-0.335188232421875,9.98382092285156,0.378283862304687
4.18119420119709,-0.4213794921875,9.95030209960937,0.354341845703125
4.18350361384901,-0.359130249023437,9.97903251953125,0.349553442382812
4.18584568150308,-0.40222587890625,9.97424411621094,0.311246215820312
4.18818774915715,-0.373495458984375,10.0173397460938,0.373495458984375
4.19052981681122,-0.4213794921875,9.9981861328125,0.354341845703125
4.1928373769783,-0.407014282226562,10.0125513427734,0.28730419921875
4.19514493714539,-0.430956298828125,10.036493359375,0.320823022460937
4.19745249731247,-0.450109912109375,10.036493359375,0.339976635742188
4.19972254679162,-0.430956298828125,10.036493359375,0.359130249023437
4.20199259627078,-0.454898315429687,10.0125513427734,0.354341845703125
4.20426264574994,-0.4213794921875,10.0029745361328,0.296881005859375
4.20653103160063,-0.435744702148437,10.0125513427734,0.3447650390625
4.20879941745133,-0.426167895507812,9.95987890625,0.368707055664062
4.21106780330203,-0.445321508789062,10.0077629394531,0.392649072265625
4.21333590703465,-0.435744702148437,10.0077629394531,0.383072265625
4.21560401076727,-0.450109912109375,9.99339772949219,0.36391865234375
4.2178721144999,-0.45968671875,9.98382092285156,0.359130249023437
4.22028831415267,-0.488417138671875,9.99339772949219,0.339976635742188
4.22270451380544,-0.445321508789062,10.0317049560547,0.354341845703125
4.22512071345821,-0.416591088867187,10.0029745361328,0.45968671875
4.22753837502503,-0.4213794921875,9.9981861328125,0.383072265625
4.22995603659186,-0.4213794921875,9.9981861328125,0.354341845703125
4.23237369815868,-0.44053310546875,9.96945571289062,0.392649072265625
4.23478593215389,-0.426167895507812,9.98382092285156,0.354341845703125
4.23719816614909,-0.483628735351562,9.96945571289062,0.383072265625
4.2396104001443,-0.450109912109375,9.99339772949219,0.397437475585937
4.24200914650932,-0.435744702148437,9.98382092285156,0.397437475585937
4.24440789287434,-0.4213794921875,9.97903251953125,0.44053310546875
4.24680663923937,-0.445321508789062,9.97903251953125,0.40222587890625
4.24917821259006,-0.483628735351562,9.97424411621094,0.4213794921875
4.25154978594075,-0.430956298828125,9.98860932617187,0.383072265625
4.25392135929144,-0.454898315429687,10.0029745361328,0.407014282226562
4.25629031697372,-0.445321508789062,10.0221281494141,0.368707055664062
4.258659274656,-0.4213794921875,9.97424411621094,0.40222587890625
4.26102823233828,-0.411802685546875,10.0029745361328,0.392649072265625
4.26340766929574,-0.4213794921875,10.0029745361328,0.416591088867187
4.2657871062532,-0.407014282226562,9.99339772949219,0.387860668945312
4.26816654321067,-0.373495458984375,9.9981861328125,0.383072265625
4.27529131165685,-0.36391865234375,9.93114848632812,0.3447650390625
4.28241608010304,-0.387860668945312,9.97424411621094,0.383072265625
4.28954084854922,-0.36391865234375,9.91678327636719,0.407014282226562
4.29194572268117,-0.36391865234375,9.97424411621094,0.397437475585937
4.29435059681312,-0.378283862304687,9.96466730957031,0.392649072265625
4.29675547094507,-0.354341845703125,9.99339772949219,0.387860668945312
4.29916157207356,-0.383072265625,10.0029745361328,0.373495458984375
4.30156767320204,-0.392649072265625,9.97424411621094,0.40222587890625
4.30397377433053,-0.397437475585937,9.94551369628906,0.397437475585937
4.30632679765949,-0.407014282226562,9.9981861328125,0.359130249023437
4.30867982098846,-0.392649072265625,9.9981861328125,0.32561142578125
4.31103284431742,-0.445321508789062,10.0221281494141,0.359130249023437
4.31339963392243,-0.411802685546875,10.0077629394531,0.378283862304687
4.31576642352745,-0.426167895507812,9.99339772949219,0.407014282226562
4.31813321313246,-0.411802685546875,9.96466730957031,0.430956298828125
4.32062994685642,-0.387860668945312,9.9981861328125,0.454898315429687
4.32312668058038,-0.4213794921875,9.96945571289062,0.426167895507812
4.32562341430435,-0.4213794921875,9.97903251953125,0.397437475585937
4.32797618958644,-0.4213794921875,9.98860932617187,0.392649072265625
4.33032896486854,-0.416591088867187,10.0125513427734,0.430956298828125
4.33268174015063,-0.445321508789062,9.99339772949219,0.416591088867187
4.33503177628343,-0.378283862304687,10.0173397460938,0.469263525390625
4.33738181241624,-0.387860668945312,10.0029745361328,0.416591088867187
4.33973184854904,-0.40222587890625,9.99339772949219,0.416591088867187
4.34442118090586,-0.411802685546875,9.96945571289062,0.454898315429687
4.34911051326268,-0.411802685546875,9.98382092285156,0.378283862304687
4.35379984561951,-0.40222587890625,9.96466730957031,0.426167895507812
4.35614371877489,-0.387860668945312,9.98860932617187,0.4213794921875
4.35848759193027,-0.378283862304687,10.0221281494141,0.416591088867187
4.36083146508565,-0.4213794921875,9.97424411621094,0.387860668945312
4.36317533769848,-0.4213794921875,9.96466730957031,0.435744702148437
4.36551921031131,-0.373495458984375,9.95987890625,0.397437475585937
4.36786308292415,-0.435744702148437,9.96466730957031,0.387860668945312
4.37020711319758,-0.397437475585937,9.94072529296875,0.383072265625
4.37255114347101,-0.40222587890625,9.98860932617187,0.430956298828125
4.37489517374445,-0.383072265625,9.94551369628906,0.392649072265625
4.38328049202243,-0.454898315429687,9.96466730957031,0.368707055664062
4.39166581030041,-0.45968671875,10.0125513427734,0.359130249023437
4.40005112857838,-0.416591088867187,9.98382092285156,0.383072265625
4.4024820177928,-0.4213794921875,9.9981861328125,0.373495458984375
4.40491290700721,-0.407014282226562,9.99339772949219,0.430956298828125
4.40734379622162,-0.392649072265625,10.0029745361328,0.36391865234375
4.40977435221124,-0.411802685546875,10.036493359375,0.378283862304687
4.41220490820085,-0.426167895507812,9.9981861328125,0.411802685546875
4.41463546419047,-0.392649072265625,10.036493359375,0.4213794921875
4.41706599044915,-0.416591088867187,10.0029745361328,0.387860668945312
4.41949651670784,-0.40222587890625,9.98382092285156,0.359130249023437
4.42192704296653,-0.368707055664062,9.9981861328125,0.411802685546875
4.42435752799256,-0.373495458984375,10.036493359375,0.416591088867187
4.42678801301858,-0.392649072265625,9.98382092285156,0.36391865234375
4.42921849804461,-0.359130249023437,10.0269165527344,0.392649072265625
4.4316907540125,-0.368707055664062,9.97424411621094,0.40222587890625
4.4341630099804,-0.426167895507812,9.9981861328125,0.368707055664062
4.4366352659483,-0.450109912109375,10.036493359375,0.354341845703125
4.44394167415139,-0.430956298828125,9.96945571289062,0.45968671875
4.45124808235449,-0.416591088867187,9.99339772949219,0.397437475585937
4.45855449055759,-0.411802685546875,9.96945571289062,0.44053310546875
4.46090775553153,-0.450109912109375,9.97903251953125,0.426167895507812
4.46326102050547,-0.397437475585937,9.96945571289062,0.354341845703125
4.4656142854794,-0.416591088867187,9.98860932617187,0.383072265625
4.46802971028411,-0.454898315429687,9.97903251953125,0.474051928710937
4.47044513508881,-0.387860668945312,9.94551369628906,0.445321508789062
4.47286055989352,-0.411802685546875,9.93114848632812,0.359130249023437
4.47526615711575,-0.387860668945312,9.95030209960937,0.469263525390625
4.47767175433797,-0.483628735351562,9.95509050292969,0.426167895507812
4.4800773515602,-0.430956298828125,9.95987890625,0.454898315429687
4.48247717577894,-0.416591088867187,9.95030209960937,0.454898315429687
4.48487699999768,-0.416591088867187,9.94551369628906,0.469263525390625
4.48727682421642,-0.426167895507812,10.0077629394531,0.445321508789062
4.48967392458535,-0.454898315429687,9.97903251953125,0.488417138671875
4.49207102495428,-0.430956298828125,9.94072529296875,0.488417138671875
4.49446812532321,-0.450109912109375,9.98860932617187,0.430956298828125
4.49686516047944,-0.407014282226562,9.97424411621094,0.44053310546875
4.49926219563566,-0.392649072265625,9.98860932617187,0.474051928710937
4.50165923079189,-0.454898315429687,10.0029745361328,0.454898315429687
4.50401690820073,-0.426167895507812,9.99339772949219,0.44053310546875
4.50637458560956,-0.454898315429687,9.98860932617187,0.45968671875
4.5087322630184,-0.435744702148437,9.97903251953125,0.483628735351562
4.51103713660783,-0.47884033203125,9.94551369628906,0.464475122070312
4.51334201019725,-0.45968671875,10.0125513427734,0.426167895507812
4.51564688378667,-0.450109912109375,9.98860932617187,0.387860668945312
4.5191475856096,-0.4213794921875,9.98860932617187,0.464475122070312
4.52264828743253,-0.411802685546875,9.99339772949219,0.445321508789062
4.52614898925546,-0.407014282226562,10.036493359375,0.435744702148437
4.52848951366954,-0.411802685546875,10.0221281494141,0.4213794921875
4.53083003808362,-0.416591088867187,10.0173397460938,0.45968671875
4.5331705624977,-0.44053310546875,9.9981861328125,0.450109912109375
4.535511074759,-0.483628735351562,9.99339772949219,0.512359155273437
4.5378515870203,-0.450109912109375,9.98382092285156,0.416591088867187
4.5401920992816,-0.450109912109375,9.9981861328125,0.450109912109375
4.54253269411668,-0.407014282226562,10.0317049560547,0.502782348632812
4.54487328895176,-0.45968671875,10.0029745361328,0.445321508789062
4.54721388378684,-0.430956298828125,9.9981861328125,0.426167895507812
4.5495409157096,-0.44053310546875,10.0173397460938,0.387860668945312
4.55186794763236,-0.411802685546875,9.96945571289062,0.4979939453125
4.55419497955513,-0.392649072265625,9.98860932617187,0.474051928710937
4.5565329208529,-0.378283862304687,10.0221281494141,0.426167895507812
4.55887086215067,-0.416591088867187,10.0029745361328,0.474051928710937
4.56120880344844,-0.411802685546875,9.97903251953125,0.426167895507812
4.5634954119337,-0.411802685546875,10.0125513427734,0.430956298828125
4.56578202041897,-0.454898315429687,10.0221281494141,0.488417138671875
4.56806862890423,-0.407014282226562,9.9981861328125,0.426167895507812
4.57040812575755,-0.378283862304687,9.96466730957031,0.44053310546875
4.57274762261088,-0.378283862304687,9.97903251953125,0.435744702148437
4.5750871194642,-0.378283862304687,10.0125513427734,0.51714755859375
4.57744433674936,-0.387860668945312,9.97903251953125,0.435744702148437
4.57980155403452,-0.378283862304687,10.0077629394531,0.407014282226562
4.58215877131968,-0.416591088867187,9.98382092285156,0.378283862304687
4.58451698871336,-0.387860668945312,9.9981861328125,0.354341845703125
4.58687520610703,-0.373495458984375,10.0173397460938,0.40222587890625
4.5892334235007,-0.368707055664062,9.98382092285156,0.40222587890625
4.59159250151719,-0.383072265625,9.98860932617187,0.40222587890625
4.59395157953368,-0.387860668945312,10.0173397460938,0.416591088867187
4.59631065755016,-0.416591088867187,9.96945571289062,0.387860668945312
4.5986707896031,-0.411802685546875,10.0173397460938,0.411802685546875
4.60103092165604,-0.373495458984375,10.0173397460938,0.407014282226562
4.60339105370898,-0.330399829101562,9.99339772949219,0.397437475585937
4.60568567154749,-0.335188232421875,9.98860932617187,0.44053310546875
4.60798028938601,-0.392649072265625,9.95987890625,0.493205541992187
4.61027490722452,-0.368707055664062,9.99339772949219,0.430956298828125
4.61250478865354,-0.387860668945312,9.98860932617187,0.392649072265625
4.61473467008256,-0.383072265625,10.0029745361328,0.373495458984375
4.61696455151159,-0.368707055664062,9.96945571289062,0.47884033203125
4.62044846321405,-0.387860668945312,9.98382092285156,0.474051928710937
4.62393237491651,-0.4213794921875,9.98860932617187,0.44053310546875
4.62741628661897,-0.387860668945312,9.96945571289062,0.4213794921875
4.62976348317931,-0.330399829101562,10.0125513427734,0.454898315429687
4.63211067973965,-0.4213794921875,9.97424411621094,0.416591088867187
4.63445787629999,-0.407014282226562,9.97903251953125,0.383072265625
4.63680637076615,-0.407014282226562,9.95987890625,0.407014282226562
4.63915486523231,-0.416591088867187,9.9981861328125,0.397437475585937
4.64150335969848,-0.392649072265625,9.97424411621094,0.416591088867187
4.64385154654746,-0.411802685546875,9.9981861328125,0.450109912109375
4.64619973339644,-0.407014282226562,9.95509050292969,0.407014282226562
4.64854792024542,-0.407014282226562,10.0125513427734,0.435744702148437
4.65091097482441,-0.44053310546875,9.96466730957031,0.464475122070312
4.6532740294034,-0.40222587890625,9.9981861328125,0.44053310546875
4.65563708398238,-0.45968671875,9.96945571289062,0.47884033203125
4.65800444330312,-0.426167895507812,9.96945571289062,0.474051928710937
4.66037180262385,-0.445321508789062,9.9981861328125,0.47884033203125
4.66273916194459,-0.435744702148437,9.94551369628906,0.502782348632812
4.6699036784919,-0.464475122070312,10.0269165527344,0.526724365234375
4.67706819503922,-0.464475122070312,9.96466730957031,0.531512768554687
4.68423271158653,-0.445321508789062,9.98860932617187,0.493205541992187
4.68658752788426,-0.44053310546875,9.98382092285156,0.44053310546875
4.68894234418198,-0.488417138671875,10.0125513427734,0.407014282226562
4.69129716047971,-0.464475122070312,9.95030209960937,0.430956298828125
4.69364444493066,-0.47884033203125,9.99339772949219,0.435744702148437
4.69599172938161,-0.445321508789062,10.0077629394531,0.450109912109375
4.69833901383257,-0.507570751953125,10.0221281494141,0.474051928710937
4.70068620079005,-0.47884033203125,9.97903251953125,0.474051928710937
4.70303338774752,-0.45968671875,10.0029745361328,0.51714755859375
4.705380574705,-0.445321508789062,10.0221281494141,0.47884033203125
4.7077277614997,-0.474051928710937,10.0269165527344,0.445321508789062
4.7100749482944,-0.4213794921875,10.0173397460938,0.493205541992187
4.7124221350891,-0.426167895507812,10.0317049560547,0.426167895507812
4.71476869818587,-0.426167895507812,10.0221281494141,0.4213794921875
4.71711526128264,-0.411802685546875,10.0460701660156,0.47884033203125
4.71946182437941,-0.383072265625,10.0317049560547,0.430956298828125
4.72180797582255,-0.397437475585937,10.0269165527344,0.4979939453125
4.72415412726569,-0.349553442382812,10.0556469726563,0.450109912109375
4.72650027870882,-0.349553442382812,10.0173397460938,0.488417138671875
4.73822077629995,-0.426167895507812,10.0317049560547,0.59376201171875
4.74994127389108,-0.450109912109375,10.0221281494141,0.5746083984375
4.76166177148221,-0.435744702148437,10.0221281494141,0.579396801757812
4.76400779285805,-0.450109912109375,10.0173397460938,0.63206923828125
4.7663538142339,-0.450109912109375,10.0173397460938,0.59376201171875
4.76869983560974,-0.47884033203125,10.0700121826172,0.598550415039062
4.77106107302293,-0.469263525390625,10.0508585693359,0.617704028320312
4.77342231043613,-0.469263525390625,10.0508585693359,0.646434448242187
4.77578354784933,-0.45968671875,10.0843773925781,0.67037646484375
4.77813269031896,-0.45968671875,10.0700121826172,0.608127221679687
4.7804818327886,-0.426167895507812,10.1083194091797,0.656011254882812
4.78283097525824,-0.464475122070312,10.0795889892578,0.617704028320312
4.78521781662106,-0.454898315429687,10.1131078125,0.603338818359375
4.78760465798389,-0.47884033203125,10.1131078125,0.5746083984375
4.78999149934671,-0.474051928710937,10.1274730224609,0.7278373046875
4.79234338682499,-0.454898315429687,10.1274730224609,0.608127221679687
4.79469527430326,-0.435744702148437,10.1083194091797,0.584185205078125
4.79704716178153,-0.469263525390625,10.1226846191406,0.617704028320312
4.79940163639089,-0.44053310546875,10.1178962158203,0.608127221679687
4.80175611100025,-0.392649072265625,10.0891657958984,0.646434448242187
4.80411058560961,-0.378283862304687,10.1274730224609,0.665588061523437
4.80639233951588,-0.373495458984375,10.1274730224609,0.617704028320312
4.80867409342215,-0.411802685546875,10.0987426025391,0.6512228515625
4.81095584732842,-0.359130249023437,10.0748005859375,0.603338818359375
4.81317474305322,-0.383072265625,10.0604353759766,0.627280834960937
4.81539363877803,-0.359130249023437,10.0843773925781,0.627280834960937
4.81761253450284,-0.368707055664062,10.0604353759766,0.565031591796875
4.81982919465909,-0.320823022460937,10.0269165527344,0.536301171875
4.82204585481534,-0.368707055664062,10.0317049560547,0.598550415039062
4.82426251497159,-0.36391865234375,10.0412817626953,0.55545478515625
4.82651748524069,-0.320823022460937,10.0460701660156,0.541089575195312
4.8287724555098,-0.339976635742188,10.0604353759766,0.502782348632812
4.8310274257789,-0.349553442382812,10.0604353759766,0.430956298828125
4.8332838007789,-0.3064578125,10.0412817626953,0.45968671875
4.8355401757789,-0.282515795898438,10.0700121826172,0.387860668945312
4.8377965507789,-0.3064578125,10.0652237792969,0.526724365234375
4.84005327951156,-0.316034619140625,10.1226846191406,0.426167895507812
4.84231000824422,-0.277727392578125,10.1035310058594,0.40222587890625
4.84456673697687,-0.339976635742188,10.1178962158203,0.526724365234375
4.84682352831801,-0.301669409179687,10.1083194091797,0.435744702148437
4.84908031965914,-0.339976635742188,10.1322614257812,0.474051928710937
4.85133711100028,-0.335188232421875,10.1274730224609,0.521935961914062
4.85359434198442,-0.330399829101562,10.1562034423828,0.507570751953125
4.85585157296857,-0.330399829101562,10.1801454589844,0.464475122070312
4.85810880395272,-0.296881005859375,10.2040874755859,0.426167895507812
4.8604302601593,-0.335188232421875,10.1801454589844,0.47884033203125
4.86275171636588,-0.368707055664062,10.1992990722656,0.45968671875
4.86507317257246,-0.320823022460937,10.2376062988281,0.531512768554687
4.86734447953858,-0.320823022460937,10.2519715087891,0.430956298828125
4.8696157865047,-0.28730419921875,10.2567599121094,0.445321508789062
4.87188709347083,-0.296881005859375,10.2615483154297,0.430956298828125
4.87416828971647,-0.349553442382812,10.26633671875,0.469263525390625
4.87644948596212,-0.36391865234375,10.2902787353516,0.45968671875
4.87873068220776,-0.320823022460937,10.3190091552734,0.512359155273437
4.88101645374637,-0.335188232421875,10.2998555419922,0.51714755859375
4.88330222528499,-0.407014282226562,10.3285859619141,0.488417138671875
4.8855879968236,-0.373495458984375,10.2998555419922,0.426167895507812
4.88787449270032,-0.387860668945312,10.2854903320312,0.47884033203125
4.89016098857704,-0.411802685546875,10.3190091552734,0.47884033203125
4.89244748445375,-0.416591088867187,10.3142207519531,0.450109912109375
4.89473539629185,-0.407014282226562,10.2759135253906,0.469263525390625
4.89702330812995,-0.45968671875,10.3190091552734,0.531512768554687
4.89931121996804,-0.450109912109375,10.3668931884766,0.502782348632812
4.90160073412819,-0.469263525390625,10.3237975585937,0.47884033203125
4.90389024828834,-0.483628735351562,10.342951171875,0.4979939453125
4.90617976244849,-0.512359155273437,10.3621047851562,0.507570751953125
4.90847033693853,-0.507570751953125,10.3333743652344,0.526724365234375
4.91076091142856,-0.526724365234375,10.3477395751953,0.560243188476563
4.9130514859186,-0.526724365234375,10.3668931884766,0.536301171875
4.91533769237477,-0.526724365234375,10.3621047851562,0.483628735351562
4.91762389883095,-0.51714755859375,10.3621047851562,0.565031591796875
4.91991010528712,-0.536301171875,10.3764699951172,0.579396801757812
4.92333921371812,-0.565031591796875,10.3573163818359,0.5746083984375
4.92676832214913,-0.536301171875,10.3142207519531,0.627280834960937
4.93019743058014,-0.565031591796875,10.3285859619141,0.627280834960937
4.93246994783276,-0.521935961914062,10.3333743652344,0.59376201171875
4.93474246508539,-0.502782348632812,10.3190091552734,0.656011254882812
4.93701498233801,-0.512359155273437,10.3142207519531,0.603338818359375
4.93928753496388,-0.474051928710937,10.2998555419922,0.63206923828125
4.94156008758975,-0.454898315429687,10.3237975585937,0.612915625
4.94383264021562,-0.45968671875,10.2615483154297,0.59376201171875
4.94612061015919,-0.464475122070312,10.2950671386719,0.679953271484375
4.94840858010276,-0.474051928710937,10.2711251220703,0.6512228515625
4.95069655004633,-0.4213794921875,10.2854903320312,0.617704028320312
4.95298636417394,-0.387860668945312,10.2328178955078,0.617704028320312
4.95527617830155,-0.407014282226562,10.1753570556641,0.656011254882812
4.95756599242915,-0.40222587890625,10.189722265625,0.646434448242187
4.95990064564096,-0.416591088867187,10.2040874755859,0.636857641601562
4.96223529885277,-0.445321508789062,10.1945106689453,0.679953271484375
4.96456995206458,-0.426167895507812,10.1849338623047,0.660799658203125
4.96676283520258,-0.407014282226562,10.2328178955078,0.588973608398437
4.96895571834058,-0.392649072265625,10.2807019287109,0.59376201171875
4.97114860147857,-0.387860668945312,10.2280294921875,0.608127221679687
4.97333700186919,-0.411802685546875,10.2711251220703,0.59376201171875
4.9755254022598,-0.36391865234375,10.2759135253906,0.603338818359375
4.97771380265041,-0.416591088867187,10.2519715087891,0.588973608398437
4.97990327215997,-0.44053310546875,10.2376062988281,0.584185205078125
4.98209274166952,-0.411802685546875,10.2136642822266,0.59376201171875
4.98428221117908,-0.387860668945312,10.1945106689453,0.603338818359375
4.98647314976416,-0.426167895507812,10.1562034423828,0.660799658203125
4.98866408834924,-0.383072265625,10.189722265625,0.636857641601562
4.99085502693433,-0.430956298828125,10.1226846191406,0.588973608398437
4.99319479885273,-0.40222587890625,10.1562034423828,0.565031591796875
4.99553457077113,-0.397437475585937,10.1514150390625,0.608127221679687
4.99787434268953,-0.378283862304687,10.0987426025391,0.612915625
5.00021691582323,-0.397437475585937,10.0939541992188,0.565031591796875
5.00255948895692,-0.373495458984375,10.1562034423828,0.627280834960937
5.00490206209062,-0.397437475585937,10.1226846191406,0.59376201171875
5.00723047486188,-0.32561142578125,10.0939541992188,0.584185205078125
5.00955888763314,-0.32561142578125,10.1274730224609,0.63206923828125
5.0118873004044,-0.3447650390625,10.1274730224609,0.617704028320312
5.01419552022863,-0.330399829101562,10.0460701660156,0.665588061523437
5.01650374005285,-0.316034619140625,10.0795889892578,0.751779321289062
5.01881195987707,-0.311246215820312,10.0939541992188,0.78529814453125
5.02110597626162,-0.335188232421875,10.0652237792969,0.737414111328125
5.02339999264618,-0.320823022460937,10.0891657958984,0.895431420898437
5.02569400903073,-0.349553442382812,10.1083194091797,0.885854614257812
5.0280337020646,-0.3447650390625,10.0843773925781,0.9193734375
5.03037339509847,-0.3447650390625,10.0652237792969,0.995987890625
5.03271308813234,-0.32561142578125,10.0700121826172,1.00556469726562
5.03965458748129,-0.368707055664062,9.74918916015625,1.20667763671875
5.04659608683025,-0.373495458984375,9.74440075683594,1.1875240234375
5.0535375861792,-0.383072265625,9.63426748046875,1.09175595703125
5.05580772593617,-0.407014282226562,9.576806640625,1.12527478027344
5.05807786569313,-0.383072265625,9.56244143066406,1.149216796875
5.06034800545009,-0.407014282226562,9.51934580078125,1.1109095703125
5.0626198567956,-0.349553442382812,9.49540378417969,1.10612116699219
5.0648917081411,-0.368707055664062,9.5001921875,1.09654436035156
5.0671635594866,-0.392649072265625,9.48103857421875,1.08696755371094
5.06943814271143,-0.373495458984375,9.44751975097656,1.05344873046875
5.07171272593626,-0.387860668945312,9.39963571777344,1.04866032714844
5.07398730916108,-0.36391865234375,9.3852705078125,1.04387192382812
5.07626332446054,-0.392649072265625,9.35654008789063,1.0342951171875
5.07853933976,-0.359130249023437,9.32780966796875,1.04866032714844
5.08081535505946,-0.349553442382812,9.28471403808594,1.02471831054687
5.08307980807597,-0.36391865234375,9.31344445800781,0.933738647460937
5.08534426109248,-0.397437475585937,9.28471403808594,0.890643017578125
5.087608714109,-0.32561142578125,9.22725319824219,0.885854614257812
5.08987094186509,-0.373495458984375,9.16500395507812,0.82360537109375
5.09213316962118,-0.416591088867187,9.18894597167969,0.909796630859375
5.09439539737727,-0.411802685546875,9.14585034179687,0.852335791015625
5.09665621410902,-0.416591088867187,9.15063874511719,0.852335791015625
5.09891703084078,-0.4213794921875,9.117119921875,0.794874951171875
5.10117784757253,-0.397437475585937,9.14585034179687,0.842758984375
5.1034367470951,-0.407014282226562,9.12190832519531,0.790086547851562
5.10569564661767,-0.430956298828125,9.14106193847656,0.8044517578125
5.10795454614023,-0.383072265625,9.14585034179687,0.74699091796875
5.11021123125311,-0.426167895507812,9.12669672851562,0.756567724609375
5.11246791636598,-0.430956298828125,9.13148513183594,0.742202514648437
5.11472460147885,-0.40222587890625,9.1554271484375,0.770932934570312
5.11689866072365,-0.387860668945312,9.16500395507812,0.78529814453125
5.11907271996844,-0.397437475585937,9.13148513183594,0.82360537109375
5.12124677921324,-0.40222587890625,9.09796630859375,0.876277807617187
5.12341835571064,-0.450109912109375,9.0788126953125,0.847547387695312
5.12558993220804,-0.435744702148437,9.08360109863281,0.948103857421875
5.12776150870545,-0.4213794921875,8.97825622558594,0.895431420898437
5.12993133943463,-0.387860668945312,8.963891015625,0.933738647460937
5.13210117016381,-0.330399829101562,8.87769975585937,0.943315454101562
5.13427100089299,-0.359130249023437,8.8489693359375,0.962469067382812
5.13643861569332,-0.311246215820312,8.78672009277344,1.04866032714844
5.13860623049365,-0.3064578125,8.76277807617187,1.03908352050781
5.14077384529398,-0.244208569335937,8.67658681640625,1.11569797363281
5.14300988913079,-0.201112939453125,8.64785639648438,1.1875240234375
5.1452459329676,-0.196324536132812,8.55687673339844,1.20667763671875
5.14748197680441,-0.186747729492187,8.504204296875,1.25456166992187
5.14971747300669,-0.15322890625,8.3892826171875,1.36469494628906
5.15195296920896,-0.124498486328125,8.34618698730469,1.44609780273437
5.15418846541124,-0.138863696289063,8.28872614746094,1.47003981933594
5.15641331458658,-0.0814028564453125,8.20732329101562,1.46046301269531
5.15863816376192,-0.0718260498046875,8.09240161132812,1.40300217285156
5.16086301293726,-0.0622492431640625,8.03015236816406,1.41257897949219
5.16308048436736,-0.067037646484375,7.967903125,1.32638771972656
5.16529795579747,-0.0430956298828125,7.94874951171875,1.27850368652344
5.16751542722758,-0.067037646484375,7.83861623535156,1.28808049316406
5.16972216337123,-0.076614453125,7.74763657226562,1.34554133300781
5.17192889951488,-0.0814028564453125,7.71890615234375,1.35990654296875
5.17413563565853,-0.129286889648437,7.63750329589844,1.32638771972656
5.17633491766807,-0.100556469726563,7.64229169921875,1.24977326660156
5.17853419967761,-0.119710083007812,7.67581052246094,1.20188923339844
5.18073348168716,-0.105344873046875,7.61834968261719,1.02950671386719
5.18293291723403,-0.100556469726563,7.57046564941406,1.02471831054687
5.18513235278091,-0.148440502929687,7.56567724609375,0.909796630859375
5.18733178832778,-0.1149216796875,7.56088884277344,0.9193734375
5.18953254885295,-0.047884033203125,7.52258161621094,0.871489404296875
5.19173330937812,-0.0143652099609375,7.51300480957031,0.842758984375
5.19393406990329,0.01915361328125,7.53215842285156,0.909796630859375
5.19613531328439,0.0718260498046875,7.52737001953125,0.885854614257812
5.19833655666549,0.076614453125,7.52737001953125,0.924161840820312
5.20053780004659,0.076614453125,7.49863959960937,0.90021982421875
5.20272410028532,0.119710083007812,7.48906279296875,0.90021982421875
5.20491040052405,0.138863696289063,7.44117875976562,0.943315454101562
5.20709670076278,0.186747729492187,7.45554396972656,0.895431420898437
5.20915311808048,0.263362182617187,7.431601953125,0.981622680664062
5.21120953539818,0.296881005859375,7.3932947265625,0.943315454101562
5.21326595271589,0.335188232421875,7.3166802734375,1.01992990722656
5.21536453680878,0.3064578125,7.29273825683594,1.02471831054687
5.21746312090167,0.3064578125,7.27358464355469,1.06781394042969
5.21956170499456,0.311246215820312,7.20175859375,1.13006318359375
5.22167546910044,0.28730419921875,7.18739338378906,1.17794721679687
5.22378923320632,0.205901342773437,7.12035573730469,1.25456166992187
5.2259029973122,0.196324536132812,7.07726010742187,1.30723410644531
5.22801993774189,0.13407529296875,7.04374128417969,1.39342536621094
5.23013687817158,0.105344873046875,6.90966599121094,1.47003981933594
5.23225381860127,0.086191259765625,6.77559069824219,1.4939818359375
5.23437366886167,-0.0526724365234375,6.81389792480469,1.54186586914062
5.23649351912207,-0.13407529296875,6.69418784179687,1.53707746582031
5.23861336938248,-0.177170922851562,6.52180532226562,1.40300217285156
5.24073455080612,-0.1915361328125,6.512228515625,1.38863696289062
5.24285573222976,-0.263362182617187,6.40209523925781,1.32159931640625
5.2449769136534,-0.282515795898438,6.28717355957031,1.24019645996094
5.24714190475584,-0.339976635742188,6.30632717285156,1.149216796875
5.24930689585829,-0.383072265625,6.29196196289062,1.08696755371094
5.25147188696073,-0.378283862304687,6.22492431640625,1.21625444335937
5.25363806979492,-0.387860668945312,6.15309826660156,1.16358200683594
5.25580425262911,-0.4213794921875,6.17225187988281,1.07260234375
5.25797043546331,-0.383072265625,6.14352145996094,1.09175595703125
5.26010549706812,-0.378283862304687,6.19140549316406,1.05823713378906
5.26224055867293,-0.407014282226562,6.22971271972656,0.981622680664062
5.26437562027775,-0.469263525390625,6.22971271972656,0.991199487304687
5.26646829787647,-0.435744702148437,6.22492431640625,1.00556469726562
5.26856097547519,-0.483628735351562,6.26801994628906,1.02471831054687
5.27065365307392,-0.47884033203125,6.26323154296875,0.995987890625
5.27270386083761,-0.445321508789062,6.205770703125,0.905008227539062
5.2747540686013,-0.474051928710937,6.20098229980469,0.890643017578125
5.276804276365,-0.474051928710937,6.22492431640625,0.794874951171875
5.27890301535157,-0.45968671875,6.30153876953125,0.780509741210937
5.28100175433813,-0.474051928710937,6.31111557617187,0.679953271484375
5.2831004933247,-0.454898315429687,6.26323154296875,0.560243188476563
5.28519221017581,-0.488417138671875,6.25844313964844,0.627280834960937
5.28728392702692,-0.541089575195312,6.27759675292969,0.536301171875
5.28937564387803,-0.47884033203125,6.37336481933594,0.603338818359375
5.29146710096353,-0.47884033203125,6.39251843261719,0.474051928710937
5.29355855804903,-0.445321508789062,6.43082565917969,0.483628735351562
5.29565001513453,-0.464475122070312,6.45955607910156,0.40222587890625
5.29774187575737,-0.40222587890625,6.53617053222656,0.588973608398437
5.29983373638021,-0.3447650390625,6.63672700195312,0.627280834960937
5.30192559700305,-0.359130249023437,6.68939943847656,0.82360537109375
5.30399713780167,-0.253785375976562,6.72770666503906,0.876277807617187
5.3060686786003,-0.253785375976562,6.665457421875,1.02471831054687
5.30814021939892,-0.181959326171875,6.67982263183594,1.08217915039062
5.31024936565544,-0.129286889648437,6.71334145507812,1.17794721679687
5.31235851191195,-0.105344873046875,6.68461103515625,1.302445703125
5.31446765816846,-0.0383072265625,6.64151540527344,1.36948334960938
5.31657743285379,0.028730419921875,6.58405456542969,1.42215578613281
5.31868720753911,0.0335188232421875,6.512228515625,1.41257897949219
5.32079698222443,0.119710083007812,6.56968935546875,1.55144267578125
5.32290682240458,0.100556469726563,6.57926616210937,1.61848032226562
5.32501666258473,0.067037646484375,6.59363137207031,1.62805712890625
5.32712650276488,0.0047884033203125,6.67024582519531,1.61369191894531
5.32923561908435,0.0335188232421875,6.63193859863281,1.63284553222656
5.33134473540381,-0.0143652099609375,6.73728347167969,1.66157595214844
5.33345385172328,-0.0430956298828125,6.79474431152344,1.57538469238281
5.3355283149394,-0.0814028564453125,6.86178195800781,1.70467158203125
5.33760277815552,-0.0718260498046875,6.92403120117187,1.82917006835937
5.33967724137165,-0.09576806640625,6.92403120117187,1.89620771484375
5.34178346733734,-0.0383072265625,6.99585725097656,2.01591779785156
5.34388969330303,-0.0814028564453125,7.00543405761719,2.11647426757812
5.34599591926872,-0.028730419921875,6.98149204101562,2.24576115722656
5.34810430577047,-0.0814028564453125,7.0102224609375,2.29843359375
5.35021269227222,-0.047884033203125,7.01979926757812,2.4516625
5.35232107877397,-0.0909796630859375,6.97670363769531,2.35110603027344
5.35442758843108,-0.110133276367187,6.93839641113281,2.375048046875
5.3565340980882,-0.129286889648437,6.88093557128906,2.38462485351562
5.35864060774531,-0.13407529296875,6.82347473144531,2.38462485351562
5.36074533045581,-0.196324536132812,6.83305153808594,2.34631762695312
5.36285005316631,-0.263362182617187,6.85220515136719,2.32237561035156
5.36495477587681,-0.277727392578125,6.83305153808594,2.22660754394531
5.36705070154956,-0.277727392578125,6.87135876464844,2.30322199707031
5.36914662722232,-0.292092602539062,6.971915234375,2.37025964355469
5.37124255289507,-0.28730419921875,7.10599052734375,2.28885678710938
5.37339228710732,-0.3064578125,7.15866296386719,2.25054956054688
5.37554202131957,-0.3064578125,7.27358464355469,2.08295544433594
5.37769175553183,-0.17238251953125,7.28316145019531,2.05901342773437
5.37983377734171,-0.229843359375,7.30710346679687,1.90578452148437
5.38197579915159,-0.201112939453125,7.3549875,1.8004396484375
5.38411782096148,-0.13407529296875,7.3166802734375,1.70467158203125
5.38630429958558,-0.119710083007812,7.33104548339844,1.69509477539062
5.38849077820968,-0.028730419921875,7.26400783691406,1.67115275878906
5.39067725683378,0.028730419921875,7.27358464355469,1.59453830566406
5.39286546256293,0.129286889648437,7.17781657714844,1.61848032226562
5.39505366829208,0.158017309570312,7.13950935058594,1.67115275878906
5.39724187402123,0.220266552734375,7.14908615722656,1.73340200195312
5.39943034656896,0.320823022460937,7.09162531738281,1.81480485839844
5.40161881911668,0.416591088867187,7.00543405761719,1.95845695800781
5.40380729166441,0.474051928710937,7.02937607421875,2.03507141113281
5.4059959241514,0.5746083984375,6.9336080078125,2.24576115722656
5.40818455663839,0.612915625,6.88093557128906,2.41814367675781
5.41037318912538,0.732625708007812,6.88093557128906,2.62404501953125
5.41256237347867,0.818816967773437,6.83783994140625,2.76290871582031
5.41475155783197,0.857124194335937,6.87614716796875,2.93529123535156
5.41694074218526,0.90021982421875,6.87614716796875,3.08852014160156
5.41906391547082,0.948103857421875,6.86178195800781,3.25132585449219
5.42118708875637,0.871489404296875,6.91924279785156,3.3327287109375
5.42331026204192,0.914585034179687,6.9336080078125,3.32315190429687
5.42756778900586,0.258573779296875,7.24964262695312,3.07894333496094
5.43182531596979,0.138863696289063,7.42681354980469,3.07415493164062
5.43608284293373,0.028730419921875,7.59440766601562,3.13640417480469
5.43817159944414,-0.0718260498046875,7.7763669921875,3.28005627441406
5.44026035595455,-0.181959326171875,7.91523068847656,3.25132585449219
5.44234911246497,-0.167594116210937,8.06367119140625,3.41413156738281
5.4444362300865,-0.186747729492187,8.24084211425781,3.45722719726562
5.44652334770804,-0.272938989257812,8.2360537109375,3.57693728027344
5.44861046532958,-0.2681505859375,8.44674345703125,3.70622416992187
5.45069591248671,-0.320823022460937,8.58560715332031,3.83072265625
5.45278135964384,-0.225054956054687,8.61433757324219,4.11323845214844
5.45486680680096,-0.239420166015625,8.74362446289062,4.34308181152344
5.45695059868467,-0.129286889648437,8.75798967285156,4.59207878417969
5.45903439056838,-0.047884033203125,8.82023891601562,4.86022937011719
5.46111818245208,-0.0430956298828125,8.91121857910156,5.12359155273437
5.46326735128889,0.067037646484375,9.01177504882812,5.24330163574219
5.4654165201257,0.220266552734375,9.09317790527344,5.31033928222656
5.46756568896251,0.292092602539062,9.19852277832031,5.34864650878906
5.46971359293389,0.387860668945312,9.19852277832031,5.30555087890625
5.47186149690526,0.47884033203125,9.28950244140625,5.20020600585937
5.47400940087664,0.450109912109375,9.28950244140625,5.0948611328125
5.4760737758224,0.51714755859375,9.28950244140625,5.09964953613281
5.47813815076817,0.531512768554687,9.19852277832031,5.10922634277344
5.48020252571393,0.660799658203125,9.24161840820312,5.05655390625
5.48223630696396,0.761356127929687,9.17458076171875,5.15711037597656
5.48427008821398,0.814028564453125,9.08360109863281,5.16668718261719
5.486303869464,0.852335791015625,9.11233151855469,5.10922634277344
5.48833353846356,0.876277807617187,9.01656345214844,5.21935961914062
5.49036320746313,0.948103857421875,8.99262143554687,5.27682045898437
5.4923928764627,0.991199487304687,8.78672009277344,5.44920297851562
5.49464515380644,1.02950671386719,8.66701000976562,5.50666381835937
5.49689743115018,1.08217915039062,8.67658681640625,5.61200869140625
5.49914970849392,1.13006318359375,8.56166513671875,5.61679709472656
5.50139526838977,1.27850368652344,8.657433203125,5.72693037109375
5.50364082828562,1.14442839355469,8.67179841308594,5.93283171386719
5.50588638818147,1.17315881347656,8.55208833007812,6.00465776367187
5.50812242908859,1.21625444335937,8.56645354003906,6.31111557617187
5.51035846999571,1.0342951171875,8.56166513671875,6.5505357421875
5.51259451090283,1.06302553710937,8.58081875,6.75164868164062
5.51480962100484,1.06781394042969,8.66222160644531,6.77080229492187
5.51702473110685,1.19231242675781,8.86812294921875,6.9336080078125
5.51923984120886,1.08217915039062,9.03092866210937,6.95276162109375
5.5213777567362,1.08217915039062,9.11233151855469,6.84262834472656
5.52351567226355,1.13485158691406,9.35175168457031,6.82347473144531
5.5256535877909,1.0342951171875,9.56722983398437,6.80910952148437
5.52771410442499,0.871489404296875,9.78749638671875,6.62236179199219
5.52977462105908,0.952892260742187,10.0029745361328,6.67982263183594
5.53183513769318,0.90021982421875,10.3716815917969,6.91445439453125
5.53386859358511,0.775721337890625,10.5153336914062,7.03895288085937
5.53590204947704,0.76614453125,10.7595422607422,7.15866296386719
5.53793550536898,0.636857641601562,11.1043072998047,7.30231506347656
5.54922088582155,2.11647426757812,15.4090818847656,9.19852277832031
5.56050626627412,2.24097275390625,15.3564094482422,9.59117185058594
5.57179164672669,2.45645090332031,15.6245600341797,9.99339772949219
5.57386097622612,2.42293208007812,15.5575223876953,10.2807019287109
5.57593030572555,2.51870014648437,15.6149832275391,10.5249104980469
5.57799963522497,2.56179577636719,15.7586353271484,10.6685625976562
5.58006438315128,2.4516625,15.6820208740234,10.7212350341797
5.58212913107758,2.52348854980469,15.8639802001953,10.8505219238281
5.58419387900389,2.47081611328125,15.8879222167969,10.87925234375
5.58625360340832,2.28406838378906,16.0076322998047,10.7930610839844
5.58831332781275,2.1835119140625,16.1848032226562,10.7978494873047
5.59037305221718,2.22660754394531,16.2805712890625,10.7595422607422
5.59242816227939,2.00634099121094,16.1991684326172,10.8361567138672
5.59448327234161,1.93930334472656,16.1560728027344,10.7403886474609
5.59653838240382,1.92014973144531,16.3236669189453,10.7978494873047
5.59864737437429,1.74776721191406,16.4768958251953,11.0420580566406
5.60075636634476,1.69988317871094,16.4338001953125,11.1282493164062
5.60286535831523,1.62805712890625,16.5918175048828,11.3389390625
5.60496916962167,1.63284553222656,16.7354696044922,11.7315881347656
5.60707298092812,1.42694418945312,17.0131969970703,11.9422778808594
5.60917679223456,1.26892687988281,16.9174289306641,12.1433908203125
5.61126374329791,1.21146604003906,16.9413709472656,11.9853735107422
5.61335069436126,0.909796630859375,16.9557361572266,12.0380459472656
5.61543764542461,0.814028564453125,16.9557361572266,12.0859299804687
5.61752185202183,0.617704028320312,17.0898114501953,12.1864864501953
5.61960605861905,0.521935961914062,16.8599680908203,12.3205617431641
5.62169026521627,0.397437475585937,17.0993882568359,12.4019645996094
5.62372983390119,0.17238251953125,17.2238867431641,12.3636573730469
5.6257694025861,0.129286889648437,17.2143099365234,12.1338140136719
5.62780897127101,-0.0143652099609375,17.3627504394531,11.6645504882812
5.62991219620591,0.0143652099609375,17.4154228759766,11.1952869628906
5.63201542114081,-0.028730419921875,17.6452662353516,10.9702320068359
5.63411864607571,0.0383072265625,17.7075154785156,10.8122146972656
5.63622437773804,0.167594116210937,17.8368023681641,10.8696755371094
5.63833010940037,0.292092602539062,17.8751095947266,10.8409451171875
5.6404358410627,0.464475122070312,17.7793415283203,10.87925234375
5.64254027639256,0.646434448242187,17.9229936279297,10.7116582275391
5.64464471172242,0.699106884765625,18.0091848876953,10.3142207519531
5.64674914705228,0.837970581054687,18.0187616943359,9.91678327636719
5.64883993947852,0.93852705078125,18.0139732910156,9.61032546386719
5.65093073190476,1.01514150390625,17.9038400146484,9.48582697753906
5.653021524331,1.1875240234375,17.8128603515625,9.38048210449219
5.65510817797684,1.24498486328125,17.7841299316406,9.36132849121094
5.65719483162269,1.29286889648437,17.7410343017578,9.27513723144531
5.65928148526854,1.29765729980469,17.6692082519531,9.1554271484375
5.66139230785971,1.22583125,17.6835734619141,9.01656345214844
5.66350313045088,1.1109095703125,17.7649763183594,8.86333454589844
5.66561395304205,0.995987890625,17.8703211914062,8.5425115234375
5.66774138392314,0.857124194335937,17.9517240478516,8.12113203125
5.66986881480422,0.7278373046875,18.1193181640625,7.86255825195312
5.67199624568531,0.545877978515625,18.2821238769531,7.64229169921875
5.67412522647955,0.416591088867187,18.4018339599609,7.58961926269531
5.6762542072738,0.21068974609375,18.5119672363281,7.54173522949219
5.67838318806804,0.124498486328125,18.6939265625,7.58004245605469
5.68051385538575,-0.047884033203125,18.8327902587891,7.40287153320312
5.68264452270347,-0.181959326171875,19.076998828125,7.278373046875
5.68477519002118,-0.301669409179687,19.3116305908203,6.98628044433594
5.68690755200034,-0.392649072265625,19.5175319335937,6.89530078125
5.68903991397949,-0.483628735351562,19.6372420166016,6.665457421875
5.69117227595865,-0.483628735351562,19.7042796630859,6.56011254882812
5.69327126554199,-0.51714755859375,19.8766621826172,6.44040246582031
5.69537025512532,-0.493205541992187,20.0394678955078,6.44997927246094
5.69746924470866,-0.536301171875,20.149601171875,6.41646044921875
5.69956635104546,-0.488417138671875,20.1735431884766,6.54095893554687
5.70166345738227,-0.44053310546875,20.2118504150391,6.46913288574219
5.70376056371907,-0.483628735351562,20.2788880615234,6.47870969238281
5.70579496844999,-0.603338818359375,20.1639663818359,6.32548078613281
5.70782937318091,-0.584185205078125,20.0298910888672,5.92325490722656
5.70986377791183,-0.488417138671875,20.1926968017578,5.76523759765625
5.71187956176601,-0.469263525390625,19.9867954589844,5.60722028808594
5.71389534562019,-0.44053310546875,19.8096245361328,5.51145222167969
5.71591112947436,-0.411802685546875,19.8958157958984,5.45877978515625
5.71792450197872,-0.531512768554687,20.1735431884766,5.49229860839844
5.71993787448308,-0.545877978515625,20.3124068847656,5.56891306152344
5.72195124698743,-0.603338818359375,20.3602909179687,5.53539423828125
5.72403122647963,-0.814028564453125,20.4129633544922,5.48751020507812
5.72611120597183,-1.01035310058594,20.4704241943359,5.13795676269531
5.72819118546403,-1.0342951171875,20.6332299072266,4.93205541992188
5.73027039531646,-1.27850368652344,20.8965920898438,4.673481640625
5.73234960516889,-1.24498486328125,21.1934730957031,4.41011945800781
5.73442881502132,-1.62805712890625,21.4233164550781,4.02704719238281
5.73650659182251,-1.58974990234375,21.4807772949219,3.78762702636719
5.7385843686237,-1.41257897949219,21.9021567871094,3.99831677246094
5.74066214542489,-1.21625444335937,22.0314436767578,4.31913979492187
5.74273820835892,-1.34554133300781,22.5485912353516,4.38617744140625
5.74481427129295,-1.47482822265625,22.6683013183594,4.35744702148437
5.74689033422698,-1.47003981933594,22.5916868652344,4.38138903808594
5.74893910294442,-1.51792385253906,22.5342260253906,4.10366164550781
5.75098787166187,-1.84832368164062,23.3003705566406,3.1794998046875
5.75303664037932,-1.96803376464844,23.8127297119141,2.83952316894531
5.75514311135369,-2.09253225097656,24.2197439941406,2.5665841796875
5.75724958232807,-1.98718737792969,24.2101671875,2.41814367675781
5.75935605330244,-2.12605107421875,24.2245323974609,2.05422502441406
5.7614607016857,-2.375048046875,24.9427928955078,1.52271225585937
5.76356535006895,-2.46123930664062,25.6083809570312,1.62326872558594
5.76566999845221,-2.16435830078125,26.0393372558594,1.99197578125
5.76776599866921,-2.09732065429687,26.4702935546875,1.93451494140625
5.76986199888622,-1.92493813476562,27.0784207763672,1.84353527832031
5.77195799910322,-1.8770541015625,27.5524727050781,2.13083947753906
5.7740451979422,-1.762132421875,27.8685073242187,2.16435830078125
5.77613239678118,-1.838746875,28.2324259765625,2.12605107421875
5.77821959562016,-1.98239897460937,28.9028024414062,1.74776721191406
5.78028342114101,-1.85311208496094,29.4438920166016,1.73340200195312
5.78234724666186,-1.68551796875,29.6019093261719,1.67594116210937
5.78441107218271,-1.40300217285156,29.4103731933594,1.5705962890625
5.78653166180946,-1.01992990722656,29.5157180664062,1.17794721679687
5.78865225143621,-0.17238251953125,29.8413294921875,1.02471831054687
5.79077284106296,0.407014282226562,30.7128188964844,0.684741674804688
5.79289397870404,0.584185205078125,31.5124822509766,0.143652099609375
5.79501511634512,0.430956298828125,32.5132585449219,-0.086191259765625
5.7971362539862,0.0814028564453125,33.0878669433594,0.277727392578125
5.79925727796624,-0.316034619140625,33.2698262695313,1.07260234375
5.80137830194629,-0.526724365234375,33.6481101318359,1.78128603515625
5.80349932592634,-0.541089575195312,33.9210491210937,2.23139594726563
5.8056199782701,-1.00077629394531,33.2075770263672,2.2601263671875
5.80774063061386,-0.445321508789062,31.2730620849609,2.71502468261719
5.80986128295763,0.110133276367187,27.7918928710937,2.7198130859375
5.811908035182,0.1915361328125,24.5453554199219,2.41814367675781
5.81395478740637,-0.162805712890625,21.6723134277344,2.70065947265625
5.81600153963075,-1.16358200683594,20.1352359619141,2.95923325195312
5.81801838750399,-1.75255561523437,19.000384375,3.59609089355469
5.82003523537723,-1.93451494140625,18.1959326171875,4.97036264648438
5.82205208325047,-1.97761057128906,17.3531736328125,6.54095893554687
5.82408451027953,-1.73340200195312,16.778565234375,7.11077893066406
5.8261169373086,-0.775721337890625,15.1122008789062,6.54574733886719
5.82814936433766,-0.0814028564453125,13.3692220703125,5.17626398925781
5.83018206426169,0.866701000976562,11.6118780517578,3.90254870605469
5.83221476418572,2.72460148925781,10.26633671875,3.65355173339844
5.83424746410975,3.15555778808594,8.90643017578125,3.28963308105469
5.83628024818093,3.74931979980469,7.81467421875,3.81635744628906
5.83831303225211,3.58651408691406,6.62236179199219,4.290409375
5.84034581632329,3.25132585449219,5.18105239257812,4.60644399414062
5.84235569132327,2.987963671875,3.68707055664062,4.367023828125
5.84436556632325,2.94486804199219,2.45645090332031,3.73016618652344
5.84637544132323,2.6431986328125,1.36469494628906,2.54264216308594
5.84840593914223,2.34631762695312,0.703895288085937,1.15879360351562
5.85043643696122,2.09253225097656,-0.110133276367187,-0.119710083007812
5.85246693478022,1.89620771484375,-0.584185205078125,-1.44609780273437
5.85457382524244,1.66636435546875,-0.871489404296875,-2.53306535644531
5.85668071570467,1.71424838867187,-0.948103857421875,-3.16513459472656
5.85878760616689,1.5705962890625,-1.28808049316406,-3.26090266113281
5.86089564675934,1.37906015625,-1.56101948242187,-2.98317526855469
5.86300368735178,1.01035310058594,-1.60411511230469,-2.61446821289062
5.86511172794422,0.962469067382812,-1.07739074707031,-1.69509477539062
5.86721991837392,0.9193734375,0.885854614257812,-0.0909796630859375
5.86932810880362,1.39821376953125,1.54186586914062,2.07816704101562
5.87143629923332,1.47482822265625,2.17393510742187,4.04141240234375
5.87354303968471,2.20745393066406,2.34152922363281,6.04296499023437
5.87564978013609,1.74776721191406,2.16914670410156,8.044517578125
5.87775652058747,2.00155258789062,1.99676418457031,10.5296989013672
5.87986070863,2.28885678710938,1.68072956542969,13.0005150146484
5.88196489667253,2.40377846679687,1.8004396484375,14.7051865966797
5.88406908471507,2.59052619628906,1.71903679199219,15.9836902832031
5.88617104478451,2.53306535644531,1.33117612304687,16.8982753173828
5.88827300485396,1.63284553222656,1.27850368652344,17.1281186767578
5.89037496492341,1.37427175292969,2.2601263671875,18.2007210205078
5.89562948643486,-2.09732065429687,10.7260234375,15.6341368408203
5.90088400794631,-1.73340200195312,9.74440075683594,15.0738936523437
5.90613852945776,-1.69509477539062,8.30309135742187,14.3795751708984
5.90825063492653,-1.75734401855469,6.30632717285156,13.5894886230469
5.9103627403953,-2.08295544433594,4.24731374511719,12.4690022460937
5.91247484586407,-2.19308872070312,2.0302830078125,11.262324609375
5.91458867236144,-2.43250888671875,0.181959326171875,10.2998555419922
5.91670249885881,-2.73417829589844,-0.8044517578125,9.86411083984375
5.91881632535618,-2.94007963867187,-1.20667763671875,9.62469067382813
5.92093185454453,-3.13161577148437,-1.46046301269531,9.43794294433594
5.92304738373289,-3.21301862792969,-1.74776721191406,8.66701000976562
5.92516291292125,-3.11725056152344,-2.07816704101562,7.59919606933594
5.9272130980341,-3.02148249511719,-2.4133552734375,5.96156213378906
5.92926328314694,-2.94486804199219,-3.01190568847656,4.14675727539062
5.93131346825979,-2.82994636230469,-3.54820686035156,1.70467158203125
5.93342059846815,-2.70544787597656,-3.37582434082031,-1.48440502929687
5.93552772867651,-2.33195241699219,-2.4516625,-3.81156904296875
5.93763485888488,-2.05422502441406,-1.82917006835937,-4.91290180664063
5.93974848258278,-1.6472107421875,-1.89620771484375,-5.00388146972656
5.94186210628068,-1.23540805664062,-2.53306535644531,-4.20900651855469
5.94397572997858,-0.9576806640625,-3.30399829101562,-3.21301862792969
5.94608981862877,-0.7278373046875,-3.60566770019531,-3.24174904785156
5.94820390727897,-0.1915361328125,-3.9839515625,-3.47638081054687
5.95031799592917,0.387860668945312,-4.07971962890625,-3.40455476074219
5.95236193972258,0.565031591796875,-3.7924154296875,-2.83952316894531
5.95440588351599,0.70868369140625,-3.19386501464844,-2.39420166015625
5.9564498273094,0.780509741210937,-2.72938989257813,-2.34152922363281
5.95849267952295,0.78529814453125,-2.28406838378906,-2.84909997558594
5.9605355317365,0.751779321289062,-1.86747729492187,-3.5625720703125
5.96257838395005,0.76614453125,-1.54665427246094,-4.31913979492187
5.96468327837278,0.943315454101562,-1.55144267578125,-4.903325
5.96678817279552,1.1109095703125,-1.43173259277344,-5.25766684570312
5.96889306721826,1.3407529296875,-1.42215578613281,-5.26245524902344
5.97101515272174,1.51792385253906,-1.35990654296875,-5.10922634277344
5.97313723822522,1.66636435546875,-1.13963999023438,-4.8650177734375
5.97525932372869,1.88184250488281,-1.06302553710937,-4.60165559082031
5.97738333240927,2.08295544433594,-1.02950671386719,-4.49631071777344
5.97950734108985,2.21224233398438,-0.799663354492188,-4.51546433105469
5.98163134977042,2.34152922363281,-0.646434448242187,-4.54898315429687
5.98375776263935,2.36547124023437,-0.550666381835937,-4.52504113769531
5.98588417550827,2.35110603027344,-0.430956298828125,-4.56334836425781
5.98801058837719,2.37983645019531,-0.253785375976562,-4.67827004394531
5.99006185487026,2.33195241699219,-0.201112939453125,-4.70221206054687
5.99211312136332,2.31279880371094,-0.196324536132812,-4.84586416015625
5.99416438785639,2.30801040039062,-0.110133276367187,-5.00866987304688
5.99625407155864,2.25533796386719,0.0047884033203125,-5.08528432617187
5.99834375526089,2.16914670410156,0.129286889648437,-5.06613071289062
6.00043343896314,2.05422502441406,0.234631762695312,-4.91769020996094
6.00252159174093,1.98239897460937,0.383072265625,-4.80755693359375
6.00460974451872,1.90099611816406,0.4213794921875,-4.54898315429687
6.0066978972965,1.74776721191406,0.579396801757812,-4.16112248535156
6.00878437103782,1.68551796875,0.660799658203125,-3.87381828613281
6.01087084477913,1.62805712890625,0.780509741210937,-3.5625720703125
6.01295731852045,1.51792385253906,0.718260498046875,-3.1794998046875
6.01511384977045,1.46525141601562,0.790086547851562,-2.91613762207031
6.01727038102046,1.35032973632813,0.790086547851562,-2.57616098632812
6.01942691227046,1.26892687988281,0.689530078125,-2.40377846679687
6.02153867464027,1.10612116699219,0.699106884765625,-2.10210905761719
6.02365043701009,0.948103857421875,0.713472094726562,-1.89141931152344
6.0257621993799,0.737414111328125,0.665588061523437,-1.58974990234375
6.02785712885042,0.5746083984375,0.612915625,-1.35511813964844
6.02995205832094,0.426167895507812,0.675164868164063,-0.967257470703125
6.03204698779146,0.258573779296875,0.622492431640625,-0.627280834960937
6.03413931016559,0.067037646484375,0.565031591796875,-0.3064578125
6.03623163253973,-0.09576806640625,0.608127221679687,0.0239420166015625
6.03832395491386,-0.292092602539062,0.656011254882812,0.3447650390625
6.04041401546074,-0.502782348632812,0.526724365234375,0.775721337890625
6.04250407600761,-0.694318481445312,0.464475122070312,1.22104284667969
6.04459413655448,-0.885854614257812,0.383072265625,1.71903679199219
6.04668255691038,-1.12527478027344,0.263362182617187,2.07816704101562
6.04877097726629,-1.31681091308594,0.229843359375,2.44208569335937
6.05085939762219,-1.46525141601562,0.258573779296875,2.67192905273437
6.0529040090588,-1.61848032226562,0.32561142578125,2.85867678222656
6.0549486204954,-1.68072956542969,0.521935961914062,3.16513459472656
6.05699323193201,-1.71424838867187,0.55545478515625,3.31357509765625
6.05910300580353,-1.69509477539062,0.521935961914062,3.32315190429687
6.06121277967504,-1.73340200195312,0.584185205078125,3.35667072753906
6.06332255354656,-1.762132421875,0.660799658203125,3.31836350097656
6.06543611561251,-1.74297880859375,0.699106884765625,3.24653745117187
6.06754967767846,-1.8004396484375,0.660799658203125,3.31836350097656
6.06966323974441,-1.76692082519531,0.612915625,3.24174904785156
6.07177857600746,-1.76692082519531,0.541089575195312,3.27526787109375
6.07389391227051,-1.74776721191406,0.47884033203125,3.23217224121094
6.07600924853355,-1.66157595214844,0.368707055664062,3.23696064453125
6.07812678423233,-1.62805712890625,0.301669409179687,3.15076938476562
6.08024431993112,-1.51313544921875,0.234631762695312,3.01190568847656
6.0823618556299,-1.46525141601562,0.129286889648437,2.95444484863281
6.08441287689723,-1.32638771972656,-0.0047884033203125,2.85388837890625
6.08646389816457,-1.27371528320312,-0.0430956298828125,2.66235224609375
6.0885149194319,-1.25935007324219,-0.105344873046875,2.60010300292969
6.09061853184512,-1.20188923339844,-0.181959326171875,2.45645090332031
6.09272214425834,-1.24019645996094,-0.167594116210937,2.42293208007812
6.09482575667155,-1.26892687988281,-0.0622492431640625,2.25054956054688
6.09693195415418,-1.34554133300781,-0.0909796630859375,2.36068283691406
6.09903815163681,-1.39342536621094,-0.0814028564453125,2.33195241699219
6.10114434911944,-1.45088620605469,-0.0526724365234375,2.35110603027344
6.10324974256562,-1.47961662597656,0.0,2.26491477050781
6.10535513601181,-1.52750065917969,-0.0143652099609375,2.24576115722656
6.107460529458,-1.51313544921875,-0.0047884033203125,2.13562788085937
6.10956375298227,-1.53707746582031,0.0814028564453125,2.068590234375
6.11166697650654,-1.50834704589844,0.162805712890625,2.05422502441406
6.11377020003081,-1.36948334960938,0.162805712890625,1.96324536132812
6.11581446652386,-1.25456166992187,0.277727392578125,1.82438166503906
6.1178587330169,-1.15400520019531,0.359130249023437,1.81001645507812
6.11990299950995,-1.13963999023438,0.373495458984375,1.70945998535156
6.12200911029556,-1.12048637695313,0.426167895507812,1.65678754882812
6.12411522108117,-1.19710083007812,0.407014282226562,1.62326872558594
6.12622133186679,-1.23061965332031,0.454898315429687,1.54186586914062
6.128330819714,-1.35032973632813,0.45968671875,1.55144267578125
6.13044030756122,-1.37427175292969,0.411802685546875,1.49877023925781
6.13254979540844,-1.39821376953125,0.36391865234375,1.52750065917969
6.1346595900048,-1.39342536621094,0.359130249023437,1.47961662597656
6.13676938460116,-1.302445703125,0.229843359375,1.48440502929687
6.13887917919752,-1.23061965332031,0.076614453125,1.46525141601562
6.14098910704042,-1.13006318359375,-0.01915361328125,1.43652099609375
6.14309903488332,-1.05823713378906,-0.215478149414062,1.302445703125
6.14520896272623,-0.943315454101562,-0.301669409179687,1.33596452636719
6.14725475753963,-0.833182177734375,-0.407014282226562,1.22104284667969
6.14930055235303,-0.751779321289062,-0.40222587890625,1.13963999023438
6.15134634716642,-0.794874951171875,-0.316034619140625,0.943315454101562
6.15344739317337,-0.713472094726562,-0.244208569335937,0.909796630859375
6.15554843918031,-0.660799658203125,-0.277727392578125,0.689530078125
6.15764948518725,-0.627280834960937,-0.339976635742188,0.526724365234375
6.15975159944506,-0.608127221679687,-0.349553442382812,0.277727392578125
6.16185371370287,-0.454898315429687,-0.162805712890625,0.0909796630859375
6.16395582796068,-0.392649072265625,-0.220266552734375,-0.028730419921875
6.16605822867684,-0.335188232421875,-0.05746083984375,-0.143652099609375
6.168160629393,-0.330399829101562,0.076614453125,-0.244208569335937
6.17026303010917,-0.2681505859375,0.215478149414062,-0.320823022460937
6.17236589556057,-0.229843359375,0.296881005859375,-0.296881005859375
6.17446876101196,-0.21068974609375,0.454898315429687,-0.24899697265625
6.17657162646336,-0.143652099609375,0.569819995117188,-0.167594116210937
6.17861254974892,-0.0718260498046875,0.617704028320312,-0.244208569335937
6.18065347303448,0.0047884033203125,0.679953271484375,-0.205901342773437
6.18269439632004,0.028730419921875,0.74699091796875,-0.2681505859375
6.18479960248323,0.100556469726563,0.847547387695312,-0.335188232421875
6.18690480864642,0.158017309570312,0.876277807617187,-0.383072265625
6.18901001480961,0.234631762695312,0.866701000976562,-0.387860668945312
6.19104436832526,0.28730419921875,0.97683427734375,-0.45968671875
6.1930787218409,0.292092602539062,1.05823713378906,-0.541089575195312
6.19511307535655,0.320823022460937,1.09654436035156,-0.545877978515625
6.19714514697113,0.282515795898438,0.9576806640625,-0.656011254882812
6.19917721858571,0.263362182617187,1.05344873046875,-0.713472094726562
6.2012092902003,0.263362182617187,1.04387192382812,-0.660799658203125
6.20324101459265,0.263362182617187,0.995987890625,-0.703895288085937
6.20527273898501,0.28730419921875,1.01035310058594,-0.7278373046875
6.20730446337737,0.3064578125,0.991199487304687,-0.761356127929687
6.2093359920232,0.277727392578125,0.986411083984375,-0.641646044921875
6.21136752066903,0.3064578125,0.9193734375,-0.598550415039062
6.21339904931486,0.335188232421875,0.895431420898437,-0.474051928710937
6.21549822965341,0.349553442382812,0.842758984375,-0.359130249023437
6.21759740999197,0.335188232421875,0.814028564453125,-0.28730419921875
6.21969659033053,0.339976635742188,0.751779321289062,-0.129286889648437
6.22179561702326,0.383072265625,0.689530078125,-0.105344873046875
6.22389464371598,0.368707055664062,0.675164868164063,0.009576806640625
6.22599367040871,0.383072265625,0.536301171875,0.086191259765625
6.22806256108799,0.296881005859375,0.51714755859375,0.17238251953125
6.23013145176726,0.349553442382812,0.588973608398437,0.2681505859375
6.23220034244653,0.272938989257812,0.521935961914062,0.253785375976562
6.23423898893091,0.21068974609375,0.4979939453125,0.258573779296875
6.23627763541529,0.220266552734375,0.488417138671875,0.354341845703125
6.23831628189967,0.148440502929687,0.512359155273437,0.411802685546875
6.24035293880073,0.100556469726563,0.387860668945312,0.454898315429687
6.24238959570178,0.076614453125,0.320823022460937,0.301669409179687
6.24442625260284,0.0430956298828125,0.36391865234375,0.158017309570312
6.2465292272122,0.028730419921875,0.3064578125,0.110133276367187
6.24863220182157,-0.01915361328125,0.225054956054687,-0.0143652099609375
6.25073517643094,-0.0143652099609375,0.17238251953125,-0.215478149414062
6.25284475564103,-0.05746083984375,0.1915361328125,-0.2681505859375
6.25495433485112,-0.0526724365234375,0.177170922851562,-0.435744702148437
6.25706391406121,0.009576806640625,0.205901342773437,-0.588973608398437
6.25917535069314,0.09576806640625,0.253785375976562,-0.70868369140625
6.26128678732508,0.17238251953125,0.2681505859375,-0.809240161132812
6.26339822395701,0.282515795898438,0.263362182617187,-0.928950244140625
6.26544257747263,0.397437475585937,0.354341845703125,-0.943315454101562
6.26748693098825,0.45968671875,0.392649072265625,-0.948103857421875
6.26953128450387,0.502782348632812,0.407014282226562,-0.962469067382812
6.27157486566704,0.521935961914062,0.488417138671875,-0.93852705078125
6.27361844683021,0.579396801757812,0.541089575195312,-0.928950244140625
6.27566202799338,0.565031591796875,0.636857641601562,-0.833182177734375
6.27776610568434,0.569819995117188,0.756567724609375,-0.852335791015625
6.2798701833753,0.560243188476563,0.90021982421875,-0.751779321289062
6.28197426106627,0.550666381835937,0.991199487304687,-0.579396801757812
6.2840803447251,0.51714755859375,1.13006318359375,-0.488417138671875
6.28618642838394,0.51714755859375,1.23540805664062,-0.397437475585937
6.28829251204277,0.45968671875,1.27371528320312,-0.177170922851562
6.29039986327976,0.445321508789062,1.35511813964844,-0.148440502929687
6.29250721451675,0.383072265625,1.31681091308594,-0.0526724365234375
6.29461456575373,0.339976635742188,1.33596452636719,-0.047884033203125
6.2965014274074,0.383072265625,1.25935007324219,-0.119710083007812
6.29838828906106,0.407014282226562,1.14442839355469,-0.13407529296875
6.30027515071473,0.330399829101562,1.07739074707031,-0.234631762695312
6.30216217360967,0.397437475585937,1.00556469726562,-0.450109912109375
6.30404919650462,0.330399829101562,0.93852705078125,-0.450109912109375
6.30593621939957,0.407014282226562,0.895431420898437,-0.4213794921875
6.30811973502458,0.450109912109375,0.790086547851562,-0.36391865234375
6.31030325064958,0.469263525390625,0.699106884765625,-0.239420166015625
6.31248676627459,0.502782348632812,0.569819995117188,-0.21068974609375
6.31467558723814,0.550666381835937,0.507570751953125,-0.119710083007812
6.31686440820169,0.617704028320312,0.349553442382812,-0.0622492431640625
6.31905322916523,0.617704028320312,0.272938989257812,0.0143652099609375
6.32124369064528,0.656011254882812,0.201112939453125,0.15322890625
6.32343415212532,0.689530078125,0.0383072265625,0.354341845703125
6.32562461360536,0.737414111328125,0.028730419921875,0.45968671875
6.32781523025031,0.78529814453125,-0.028730419921875,0.569819995117188
6.33000584689526,0.809240161132812,0.0335188232421875,0.646434448242187
6.33219646354021,0.8810662109375,0.0047884033203125,0.7278373046875
6.33438615755062,0.8810662109375,-0.0335188232421875,0.641646044921875
6.33657585156102,0.90021982421875,-0.0909796630859375,0.579396801757812
6.33876554557142,0.876277807617187,-0.129286889648437,0.483628735351562
6.34094729113892,0.9193734375,-0.24899697265625,0.45968671875
6.34312903670642,0.9193734375,-0.335188232421875,0.454898315429687
6.34531078227391,0.928950244140625,-0.474051928710937,0.569819995117188
6.35178152670205,1.13485158691406,-2.81558115234375,-0.76614453125
6.35825227113019,1.13485158691406,-2.97838686523437,-1.01992990722656
6.36472301555833,1.13006318359375,-3.141192578125,-1.17794721679687
6.3768315890392,-0.842758984375,16.8216608642578,8.71489404296875
6.38894016252007,-0.78529814453125,14.9062995361328,9.49540378417969
6.40104873600094,-2.24576115722656,15.7873657470703,12.8233440917969
6.40324387228569,-2.66235224609375,18.5742164794922,13.7522943359375
6.40543900857043,-1.22104284667969,22.0697509033203,14.3795751708984
6.40763414485517,-0.119710083007812,28.4143853027344,22.2995942626953
6.40984241807563,-1.76692082519531,31.6848647705078,32.8197163574219
6.4120506912961,-8.19295808105469,28.0217362304687,30.569166796875
6.41425896451656,-12.1433908203125,24.3394540771484,17.7266690917969
6.41647129774142,-12.334926953125,27.5620495117187,5.85621726074219
6.41868363096629,-10.9510783935547,30.8085869628906,-2.70544787597656
6.42089596419115,-11.4682259521484,31.7758444335937,-9.86889924316406
6.4231100524073,-11.2479593994141,36.7701490966797,-14.0300217285156
6.42532414062345,-6.40209523925781,42.5976359375,-13.0436106445312
6.42753822883961,-0.258573779296875,42.4156766113281,-9.12669672851562
6.42975405750715,2.67192905273437,36.0327349853516,-5.46356818847656
6.4319698861747,3.54341845703125,30.8085869628906,-3.20344182128906
6.43418571484224,4.32392819824219,28.5101533691406,-1.88663090820312
6.43633504058011,5.06613071289062,28.7399967285156,-0.36391865234375
6.43848436631798,5.95198532714844,29.7647150390625,0.809240161132812
6.44063369205585,6.59841977539062,30.1334220947266,0.70868369140625
6.44604769075377,-0.76614453125,32.4270672851562,10.6446205810547
6.45146168945169,-1.51313544921875,32.3839716552734,10.7691190673828
6.45687568814961,-2.16914670410156,32.2738383789062,10.7547538574219
6.45905137087528,-2.84431157226562,32.6329686279297,11.1282493164062
6.46122705360095,-3.28963308105469,32.9394264404297,10.7451770507812
6.46340273632663,-3.67749375,32.5563541748047,9.95030209960937
6.46554707481403,-3.78762702636719,32.4510093017578,9.92636008300781
6.46769141330144,-3.75889660644531,32.3408760253906,9.84974562988281
6.46983575178885,-3.50511123046875,32.7191598876953,9.28950244140625
6.47193958143294,-2.80121594238281,33.1405393798828,8.79150849609375
6.47404341107704,-1.47482822265625,32.7670439208984,7.3932947265625
6.47614724072113,-1.31681091308594,31.1294099853516,7.38850632324219
6.47824182340341,-0.952892260742187,30.64578125,8.64785639648438
6.48033640608568,-0.63206923828125,30.8564709960937,9.57201823730469
6.48243098876796,-0.301669409179687,30.8373173828125,8.93994899902344
6.48459204888082,-0.17238251953125,30.8181637695312,7.94874951171875
6.48675310899369,-0.21068974609375,29.5636020996094,6.69897624511719
6.48891416910655,-0.277727392578125,28.1605999267578,7.30231506347656
6.49107434510481,-0.339976635742188,27.7918928710937,8.56166513671875
6.49323452110306,-0.17238251953125,27.7871044677734,9.193734375
6.49539469710132,0.225054956054687,27.4519162353516,7.95353791503906
6.49753264160003,0.316034619140625,26.4128327148437,6.96712683105469
6.49967058609874,0.723048901367187,25.6754186035156,7.11077893066406
6.50180853059746,1.08217915039062,25.3354419677734,7.58961926269531
6.50392446912827,1.3407529296875,25.1247522216797,7.82903942871094
6.50604040765909,1.608903515625,24.5405670166016,7.80509741210937
6.50815634618991,1.78128603515625,24.2388976074219,8.16422766113281
6.51027175048677,1.76692082519531,24.2341092041016,8.52814631347656
6.51238715478364,1.72861359863281,24.4543757568359,8.63349118652344
6.51450255908051,1.608903515625,24.6411234863281,8.42758984375
6.5166854286009,1.29765729980469,24.7799871826172,8.51378110351562
6.51886829812129,0.933738647460937,25.1199638183594,8.82023891601562
6.52105116764167,0.55545478515625,25.3641723876953,8.98783303222656
6.52323932443421,0.3064578125,25.2205202880859,8.98304462890625
6.52542748122675,0.215478149414062,24.7751987792969,9.03571706542969
6.52761563801928,0.196324536132812,24.2963584472656,8.94473740234375
6.52977102739646,0.1915361328125,23.7409036621094,8.64785639648438
6.53192641677362,0.158017309570312,23.2333329101562,8.16901606445312
6.53408180615079,0.047884033203125,22.6347824951172,7.61356127929687
6.53620270697543,0.0430956298828125,22.2564986328125,7.12035573730469
6.53832360780006,0.0526724365234375,21.9787712402344,6.65109221191406
6.54044450862469,-0.0143652099609375,21.681890234375,6.15788666992187
6.54256486024147,-0.0622492431640625,21.4568352783203,5.72693037109375
6.54468521185825,-0.158017309570312,21.2940295654297,5.57370146484375
6.54680556347503,-0.1915361328125,21.1982614990234,5.49708701171875
6.54898728710787,-0.167594116210937,21.0163021728516,5.42047255859375
