timestamp,accel_x (m/s2),accel_y (m/s2),accel_z (m/s2)
0.00348073410373217,-0.244208569335937,9.2320416015625,0.8044517578125
0.00696146820746435,0.713472094726562,9.9981861328125,0.05746083984375
0.0104422023111965,0.74699091796875,10.0173397460938,0.0383072265625
0.0174072036132884,0.713472094726562,10.0029745361328,0.09576806640625
0.0243722049153803,0.74699091796875,10.0077629394531,0.177170922851562
0.0313372062174722,0.737414111328125,9.96945571289062,0.196324536132812
0.0383044992947437,0.742202514648437,9.97903251953125,0.239420166015625
0.0452717923720153,0.76614453125,9.883264453125,0.296881005859375
0.0522390854492869,0.780509741210937,9.89762966308594,0.330399829101562
0.0592779506836602,0.78529814453125,9.84974562988281,0.36391865234375
0.0663168159180335,0.799663354492188,9.82580361328125,0.354341845703125
0.0733556811524068,0.82360537109375,9.82580361328125,0.320823022460937
0.0803976805013538,0.847547387695312,9.82101520996094,0.416591088867187
0.0874396798503009,0.885854614257812,9.83059201660156,0.545877978515625
0.094481679199248,0.866701000976562,9.83059201660156,0.51714755859375
0.101525778157566,0.871489404296875,9.85932243652344,0.531512768554687
0.108569877115883,0.852335791015625,9.91199487304687,0.531512768554687
0.115613976074201,0.809240161132812,9.90720646972656,0.512359155273437
0.122659433213964,0.8044517578125,9.883264453125,0.488417138671875
0.129704890353726,0.761356127929687,9.88805285644531,0.430956298828125
0.136750347493489,0.7278373046875,9.95987890625,0.474051928710937
0.143797352701805,0.699106884765625,9.93114848632812,0.4979939453125
0.150844357910122,0.689530078125,10.0125513427734,0.469263525390625
0.157891363118438,0.636857641601562,10.0221281494141,0.378283862304687
0.165009893825906,0.5746083984375,9.94551369628906,0.435744702148437
0.172128424533374,0.569819995117188,9.95987890625,0.387860668945312
0.179246955240842,0.526724365234375,9.97903251953125,0.387860668945312
0.186372575140998,0.526724365234375,10.0029745361328,0.40222587890625
0.193498195041154,0.545877978515625,10.0221281494141,0.339976635742188
0.200623814941309,0.454898315429687,10.0029745361328,0.502782348632812
0.207754124186105,0.454898315429687,10.0412817626953,0.435744702148437
0.214884433430901,0.387860668945312,9.98382092285156,0.526724365234375
0.222014742675697,0.397437475585937,9.96466730957031,0.579396801757812
0.229150280327606,0.387860668945312,9.98382092285156,0.59376201171875
0.236285817979516,0.383072265625,9.95987890625,0.622492431640625
0.243421355631426,0.407014282226562,9.91678327636719,0.703895288085937
0.250560282389226,0.397437475585937,9.94072529296875,0.723048901367187
0.257699209147025,0.383072265625,9.89284125976562,0.627280834960937
0.264838135904824,0.426167895507812,9.90241806640625,0.675164868164063
0.272036783257249,0.411802685546875,9.93593688964844,0.603338818359375
0.279235430609674,0.335188232421875,9.89284125976562,0.4979939453125
0.286434077962099,0.320823022460937,9.92636008300781,0.411802685546875
0.293638544867463,0.296881005859375,9.97903251953125,0.21068974609375
0.300843011772827,0.239420166015625,10.0700121826172,0.100556469726563
0.308047478678191,0.205901342773437,10.0843773925781,0.009576806640625
0.315256343261543,0.1915361328125,10.0412817626953,-0.09576806640625
0.322465207844895,0.215478149414062,10.1274730224609,-0.181959326171875
0.329674072428247,0.186747729492187,10.2184526855469,-0.186747729492187
0.336887050509858,0.162805712890625,10.2423947021484,-0.148440502929687
0.34410002859147,0.13407529296875,10.2423947021484,-0.215478149414062
0.351313006673081,0.143652099609375,10.2567599121094,-0.09576806640625
0.358530736707811,0.15322890625,10.2711251220703,-0.0718260498046875
0.36574846674254,0.138863696289063,10.2232410888672,-0.1149216796875
0.37296619677727,0.17238251953125,10.2471831054687,-0.1149216796875
0.380241441894441,0.1915361328125,10.1849338623047,-0.0047884033203125
0.387516687011612,0.162805712890625,10.0843773925781,-0.110133276367187
0.394791932128783,0.181959326171875,9.97424411621094,-0.110133276367187
0.402070125596651,0.215478149414062,9.85932243652344,-0.124498486328125
0.40934831906452,0.158017309570312,9.76355437011719,-0.181959326171875
0.416626512532389,0.220266552734375,9.70130512695312,-0.244208569335937
0.423907509494181,0.301669409179687,9.59117185058594,-0.296881005859375
0.431188506455972,0.258573779296875,9.51455739746094,-0.239420166015625
0.438469503417764,0.263362182617187,9.59117185058594,-0.24899697265625
0.445754527506324,0.311246215820312,9.59117185058594,-0.311246215820312
0.453039551594884,0.316034619140625,9.71088193359375,-0.234631762695312
0.460324575683444,0.282515795898438,9.78270798339844,-0.177170922851562
0.467611563639177,0.2681505859375,9.81622680664062,-0.0383072265625
0.474898551594909,0.21068974609375,9.87368764648437,0.0430956298828125
0.482185539550642,0.15322890625,9.87847604980469,0.067037646484375
0.489536977484666,0.09576806640625,9.92636008300781,0.124498486328125
0.49688841541869,0.0718260498046875,9.93114848632812,0.1915361328125
0.504239853352715,0.047884033203125,9.91678327636719,0.244208569335937
0.511594055284149,0.0,9.99339772949219,0.330399829101562
0.518948257215584,-0.0430956298828125,10.0556469726563,0.4213794921875
0.526302459147018,-0.0622492431640625,10.1083194091797,0.474051928710937
0.533658377441308,-0.076614453125,10.0843773925781,0.521935961914062
0.541014295735598,-0.076614453125,10.1178962158203,0.565031591796875
0.548370214029887,-0.138863696289063,10.1083194091797,0.579396801757812
0.555727695258194,-0.21068974609375,10.1418382324219,0.584185205078125
0.5630851764865,-0.28730419921875,10.1657802490234,0.5746083984375
0.570442657714807,-0.3447650390625,10.1514150390625,0.521935961914062
0.577801712293801,-0.378283862304687,10.1178962158203,0.435744702148437
0.585160766872794,-0.450109912109375,10.0269165527344,0.36391865234375
0.592519821451788,-0.526724365234375,10.0029745361328,0.3447650390625
0.599952514811169,-0.6512228515625,10.0221281494141,0.3064578125
0.607385208170551,-0.617704028320312,9.98860932617187,0.234631762695312
0.614817901529932,-0.732625708007812,10.0460701660156,0.24899697265625
0.62225769373913,-0.751779321289062,10.0077629394531,0.181959326171875
0.629697485948327,-0.770932934570312,9.98860932617187,0.181959326171875
0.637137278157525,-0.814028564453125,10.0125513427734,0.0909796630859375
0.644581458170554,-0.890643017578125,9.95030209960937,-0.0383072265625
0.652025638183583,-0.909796630859375,10.0317049560547,-0.047884033203125
0.659469818196612,-0.905008227539062,9.9981861328125,-0.100556469726563
0.666917424424923,-0.876277807617187,10.0700121826172,-0.129286889648437
0.674365030653234,-0.952892260742187,10.1131078125,-0.138863696289063
0.681812636881546,-0.9193734375,10.0939541992188,-0.15322890625
0.689262518391956,-0.9193734375,10.0843773925781,-0.220266552734375
0.696712399902367,-0.9576806640625,10.1322614257812,-0.181959326171875
0.704162281412778,-0.93852705078125,10.1131078125,-0.138863696289063
0.711675943413638,-0.962469067382812,10.1035310058594,-0.143652099609375
0.719189605414499,-0.952892260742187,10.0987426025391,-0.09576806640625
0.72670326741536,-0.981622680664062,10.1274730224609,-0.0047884033203125
0.734222361273851,-0.972045874023437,10.1466266357422,-0.0335188232421875
0.741741455132342,-0.962469067382812,10.1035310058594,0.076614453125
0.749260548990833,-1.01035310058594,10.1131078125,-0.01915361328125
0.756784515462186,-1.01035310058594,10.0652237792969,0.0047884033203125
0.76430848193354,-1.01035310058594,10.0508585693359,0.0
0.771832448404894,-1.00556469726562,10.0317049560547,0.13407529296875
0.779360216634056,-1.02950671386719,10.0173397460938,0.143652099609375
0.786887984863218,-1.03908352050781,9.98860932617187,0.1915361328125
0.79441575309238,-1.07739074707031,9.97424411621094,0.047884033203125
0.801946399576764,-1.1109095703125,10.0269165527344,-0.0814028564453125
0.809477046061147,-1.07739074707031,10.0029745361328,-0.148440502929687
0.817007692545531,-1.10133276367187,9.93593688964844,-0.067037646484375
0.82459325363493,-1.07739074707031,9.89284125976562,0.086191259765625
0.83217881472433,-1.15879360351562,9.84974562988281,0.13407529296875
0.839764375813729,-1.21625444335937,9.85453403320312,0.1149216796875
0.847354613009922,-1.17794721679687,9.80665,0.138863696289063
0.854944850206114,-1.27371528320312,9.79228479003906,0.162805712890625
0.862535087402307,-1.25935007324219,9.72524714355469,0.201112939453125
0.870131066785992,-1.30723410644531,9.64384428710937,0.1915361328125
0.877727046169677,-1.3407529296875,9.61032546386719,0.239420166015625
0.885323025553362,-1.39821376953125,9.56722983398437,0.09576806640625
0.892923344021256,-1.41257897949219,9.56244143066406,0.13407529296875
0.90052366248915,-1.38863696289062,9.53371101074219,0.220266552734375
0.908123980957043,-1.455674609375,9.48103857421875,0.143652099609375
0.915728679741771,-1.47482822265625,9.5001921875,0.148440502929687
0.923333378526498,-1.48440502929687,9.47146176757813,0.15322890625
0.930938077311225,-1.59932670898438,9.39963571777344,0.158017309570312
0.938603740180156,-1.608903515625,9.36611689453125,0.181959326171875
0.946269403049087,-1.66157595214844,9.39484731445313,0.129286889648437
0.953935065918017,-1.69030637207031,9.45230815429687,0.124498486328125
0.961605626464878,-1.69988317871094,9.43315454101563,0.105344873046875
0.969276187011739,-1.7238251953125,9.40442412109375,0.0622492431640625
0.9769467475586,-1.82917006835937,9.47146176757813,0.100556469726563
0.984619505805123,-1.80522805175781,9.4618849609375,0.086191259765625
0.992292264051647,-1.83395847167969,9.45709655761719,0.105344873046875
0.99996502229817,-1.85790048828125,9.40921252441406,0.0718260498046875
1.00764081016708,-1.86747729492187,9.46667336425781,0.119710083007812
1.01531659803599,-1.88663090820312,9.39963571777344,0.124498486328125
1.0229923859049,-1.89141931152344,9.37569370117187,0.086191259765625
1.03067011127382,-1.9536685546875,9.40921252441406,0.05746083984375
1.03834783664274,-2.00155258789062,9.36611689453125,0.086191259765625
1.04602556201166,-2.05901342773437,9.36132849121094,0.05746083984375
1.05378489078771,-2.09253225097656,9.38048210449219,0.13407529296875
1.06154421956376,-2.12126267089844,9.3852705078125,0.129286889648437
1.0693035483398,-2.14041628417969,9.39484731445313,0.009576806640625
1.07706643994137,-2.16435830078125,9.36132849121094,0.129286889648437
1.08482933154293,-2.16435830078125,9.38048210449219,0.143652099609375
1.09259222314449,-2.21224233398438,9.37090529785156,0.186747729492187
1.10035708143441,-2.21703073730469,9.40442412109375,0.0814028564453125
1.10812193972432,-2.19308872070312,9.37090529785156,0.158017309570312
1.11588679801423,-2.21703073730469,9.35175168457031,0.13407529296875
1.12365353759757,-2.21703073730469,9.32302126464844,0.15322890625
1.13142027718091,-2.1835119140625,9.32302126464844,0.086191259765625
1.13918701676425,-2.13562788085937,9.3086560546875,0.15322890625
1.1469590660264,-2.17393510742187,9.27992563476562,0.119710083007812
1.15473111528854,-2.13562788085937,9.27513723144531,0.148440502929687
1.16250316455069,-2.15956989746094,9.29907924804687,0.110133276367187
1.1703235897894,-2.14999309082031,9.270348828125,0.105344873046875
1.17814401502812,-2.16435830078125,9.29429084472656,0.067037646484375
1.18596444026684,-2.17872351074219,9.28471403808594,0.21068974609375
1.1937881752929,-2.13083947753906,9.29429084472656,0.086191259765625
1.20161191031896,-2.08774384765625,9.29429084472656,0.124498486328125
1.20943564534502,-2.11168586425781,9.27992563476562,0.24899697265625
1.21726163254122,-2.09732065429687,9.28950244140625,0.196324536132812
1.22508761973741,-2.19308872070312,9.31823286132813,0.1915361328125
1.23291360693361,-2.1452046875,9.30386765136719,0.158017309570312
1.240741535102,-2.14041628417969,9.36132849121094,0.158017309570312
1.24856946327039,-2.1835119140625,9.35654008789063,0.124498486328125
1.25639739143878,-2.20745393066406,9.39963571777344,0.138863696289063
1.26422716368271,-2.23139594726563,9.42836613769531,0.105344873046875
1.27205693592665,-2.22660754394531,9.47625017089844,0.177170922851562
1.27988670817058,-2.20745393066406,9.47146176757813,0.15322890625
1.28778636420357,-2.21224233398438,9.45230815429687,0.13407529296875
1.29568602023657,-2.24097275390625,9.48103857421875,0.105344873046875
1.30358567626956,-2.26970317382813,9.48103857421875,0.047884033203125
1.3114910643989,-2.25533796386719,9.44273134765625,0.0526724365234375
1.31939645252824,-2.24576115722656,9.44751975097656,0.028730419921875
1.32730184065758,-2.19787712402344,9.42836613769531,0.0335188232421875
1.3352093049588,-2.14999309082031,9.40921252441406,0.028730419921875
1.34311676926003,-2.1835119140625,9.37090529785156,0.0239420166015625
1.35102423356125,-2.10210905761719,9.39005891113281,-0.0047884033203125
1.35893361810986,-2.09253225097656,9.38048210449219,0.0239420166015625
1.36684300265847,-2.03985981445312,9.33259807128906,0.047884033203125
1.37475238720708,-2.04943662109375,9.31344445800781,0.0814028564453125
1.38266397878696,-2.01112939453125,9.31823286132813,0.124498486328125
1.39057557036684,-2.03507141113281,9.30386765136719,0.129286889648437
1.39848716194672,-2.05901342773437,9.32302126464844,0.119710083007812
1.40646422227659,-2.06380183105469,9.34217487792969,0.100556469726563
1.41444128260647,-2.11168586425781,9.31823286132813,0.110133276367187
1.42241834293634,-2.10210905761719,9.35175168457031,0.105344873046875
1.43039966780611,-2.12605107421875,9.38048210449219,0.0814028564453125
1.43838099267589,-2.12126267089844,9.47146176757813,0.17238251953125
1.44636231754566,-2.12126267089844,9.47146176757813,0.177170922851562
1.45434859554045,-2.15478149414062,9.53371101074219,0.1915361328125
1.46233487353523,-2.13562788085937,9.58638344726563,0.244208569335937
1.47032115153002,-2.12605107421875,9.60074865722656,0.167594116210937
1.4783114577366,-2.17872351074219,9.66778630371094,0.177170922851562
1.48630176394317,-2.12605107421875,9.66299790039063,0.186747729492187
1.49429207014975,-2.16435830078125,9.71567033691406,0.177170922851562
1.50234682264541,-2.13562788085937,9.78749638671875,0.1915361328125
1.51040157514107,-2.11168586425781,9.81622680664062,0.17238251953125
1.51845632763673,-2.05901342773437,9.86889924316406,0.201112939453125
1.52651384879558,-2.05422502441406,9.8449572265625,0.201112939453125
1.53457136995443,-2.03507141113281,9.9215716796875,0.205901342773437
1.54262889111328,-2.03507141113281,9.9215716796875,0.311246215820312
1.55076223377822,-2.02549460449219,9.85453403320312,0.225054956054687
1.55889557644317,-1.94409174804687,9.86411083984375,0.239420166015625
1.56702891910811,-1.96324536132812,9.90720646972656,0.272938989257812
1.57524303976785,-1.93451494140625,9.8449572265625,0.263362182617187
1.58345716042758,-1.90578452148437,9.80665,0.2681505859375
1.59167128108732,-1.92014973144531,9.78749638671875,0.234631762695312
1.59989120241979,-1.90578452148437,9.730035546875,0.292092602539062
1.60811112375226,-1.8770541015625,9.70609353027344,0.339976635742188
1.61633104508473,-1.89141931152344,9.72524714355469,0.282515795898438
1.62455462158213,-1.84832368164062,9.70609353027344,0.3447650390625
1.63277819807953,-1.87226569824219,9.66299790039063,0.445321508789062
1.64100177457692,-1.83395847167969,9.61032546386719,0.45968671875
1.64922884597449,-1.82917006835937,9.59117185058594,0.416591088867187
1.65745591737205,-1.84353527832031,9.51455739746094,0.426167895507812
1.66568298876962,-1.85311208496094,9.54328781738281,0.469263525390625
1.67391508772797,-1.77649763183594,9.52413420410156,0.373495458984375
1.68214718668632,-1.81480485839844,9.52892260742187,0.36391865234375
1.69037928564467,-1.81480485839844,9.4618849609375,0.373495458984375
1.71096575906048,-1.608903515625,9.37090529785156,0.2681505859375
1.73155223247628,-1.57538469238281,9.36132849121094,0.215478149414062
1.75213870589209,-1.62805712890625,9.40921252441406,0.234631762695312
1.77695466400841,-1.57538469238281,9.64384428710937,0.416591088867187
1.80177062212473,-1.58017309570312,9.62469067382813,0.397437475585937
1.82658658024104,-1.60411511230469,9.68215151367187,0.378283862304687
1.83488405832262,-1.55623107910156,9.66299790039063,0.430956298828125
1.84318153640421,-1.55623107910156,9.66778630371094,0.526724365234375
1.85147901448579,-1.54186586914062,9.71088193359375,0.51714755859375
1.85977877251529,-1.52750065917969,9.74440075683594,0.531512768554687
1.8680785305448,-1.52750065917969,9.730035546875,0.579396801757812
1.8763782885743,-1.52750065917969,9.7683427734375,0.512359155273437
1.88468035595713,-1.54186586914062,9.80186159667969,0.622492431640625
1.89298242333996,-1.52271225585937,9.82101520996094,0.622492431640625
1.90128449072279,-1.47482822265625,9.84974562988281,0.636857641601562
1.90958838232435,-1.51313544921875,9.84016882324219,0.665588061523437
1.91789227392591,-1.51792385253906,9.89762966308594,0.665588061523437
1.92619616552747,-1.49877023925781,9.9215716796875,0.679953271484375
1.93456407514119,-1.49877023925781,9.93593688964844,0.70868369140625
1.9429319847549,-1.52271225585937,9.89762966308594,0.732625708007812
1.95129989436862,-1.52750065917969,9.91199487304687,0.703895288085937
1.95967321164293,-1.48919343261719,9.97903251953125,0.679953271484375
1.96804652891725,-1.52271225585937,9.99339772949219,0.70868369140625
1.97641984619156,-1.47961662597656,9.96466730957031,0.857124194335937
1.98479850493724,-1.44609780273437,9.95030209960937,0.794874951171875
1.99317716368292,-1.42694418945312,9.95987890625,0.814028564453125
2.0015558224286,-1.37427175292969,10.0221281494141,0.756567724609375
2.00993762255882,-1.37427175292969,10.0221281494141,0.790086547851562
2.01831942268905,-1.36948334960938,9.98860932617187,0.76614453125
2.02670122281927,-1.35511813964844,10.036493359375,0.852335791015625
2.03508503021946,-1.33596452636719,9.9981861328125,0.905008227539062
2.04346883761965,-1.32638771972656,10.0173397460938,1.01992990722656
2.05185264501984,-1.34554133300781,9.9981861328125,0.972045874023437
2.06029806157801,-1.302445703125,9.93114848632812,1.06302553710937
2.06874347813618,-1.30723410644531,9.87847604980469,1.01992990722656
2.07718889469436,-1.302445703125,9.87368764648437,1.01035310058594
2.08563757253724,-1.31202250976562,9.89284125976562,1.02950671386719
2.09408625038012,-1.24498486328125,9.83538041992187,1.06302553710937
2.10253492822301,-1.24498486328125,9.74918916015625,1.03908352050781
2.11098582980723,-1.17315881347656,9.71567033691406,1.06302553710937
2.11943673139145,-1.20667763671875,9.64384428710937,1.00077629394531
2.12788763297567,-1.13485158691406,9.61990227050781,1.02950671386719
2.13634042551041,-1.10612116699219,9.61032546386719,1.09654436035156
2.14479321804515,-1.10133276367187,9.59596025390625,1.10133276367187
2.15324601057989,-1.00077629394531,9.576806640625,1.23540805664062
2.16170060725957,-0.948103857421875,9.62947907714844,1.19710083007812
2.17015520393924,-0.890643017578125,9.71088193359375,1.38863696289062
2.17860980061891,-0.756567724609375,9.83538041992187,1.43652099609375
2.18713474875259,-0.598550415039062,9.86889924316406,1.45088620605469
2.19565969688627,-0.45968671875,10.036493359375,1.608903515625
2.20418464501995,-0.301669409179687,10.2328178955078,1.71903679199219
2.2127154549158,-0.0718260498046875,10.4530844482422,1.74297880859375
2.22124626481165,0.205901342773437,10.6877162109375,1.81001645507812
2.2297770747075,0.493205541992187,10.9606552001953,1.78607443847656
2.23831169547573,0.732625708007812,11.1665565429687,1.82917006835937
2.24684631624397,1.07739074707031,11.4586491455078,1.70467158203125
2.25538093701221,1.32638771972656,11.7411649414062,1.67115275878906
2.26391907047575,1.59932670898438,12.028469140625,1.74776721191406
2.27245720393929,1.762132421875,12.334926953125,1.73340200195312
2.28099533740283,1.92972653808594,12.5743471191406,1.71424838867187
2.28955287310161,2.05901342773437,12.7419412353516,1.6472107421875
2.29811040880039,2.1452046875,12.9909382080078,1.63763393554687
2.30666794449917,2.13083947753906,13.1393787109375,1.69509477539062
2.31527111474657,2.04464821777344,13.1585323242187,1.6472107421875
2.32387428499396,1.915361328125,13.1202250976562,1.65678754882812
2.33247745524136,1.8004396484375,13.0627642578125,1.6472107421875
2.34108324408684,1.63763393554687,12.8472861083984,1.52750065917969
2.34968903293232,1.46046301269531,12.4594254394531,1.41257897949219
2.3582948217778,1.2641384765625,12.0955067871094,1.20188923339844
2.36690299886114,1.01514150390625,11.6310316650391,1.01992990722656
2.37551117594448,0.699106884765625,11.0995188964844,0.790086547851562
2.38411935302781,0.435744702148437,10.7499654541016,0.531512768554687
2.39272940467712,0.201112939453125,10.3908352050781,0.311246215820312
2.40133945632643,-0.0335188232421875,9.97903251953125,0.1149216796875
2.40994950797574,-0.21068974609375,9.6917283203125,-0.009576806640625
2.41856156906514,-0.411802685546875,9.44273134765625,-0.028730419921875
2.42717363015455,-0.608127221679687,9.16021555175781,-0.047884033203125
2.43578569124395,-0.847547387695312,9.0788126953125,-0.129286889648437
2.44446674853562,-0.9193734375,8.87291135253906,-0.186747729492187
2.45314780582729,-0.943315454101562,8.82502731933594,-0.3064578125
2.46182886311897,-0.93852705078125,8.79150849609375,-0.320823022460937
2.47051574484639,-0.97683427734375,8.76756647949219,-0.383072265625
2.47920262657381,-0.895431420898437,8.8872765625,-0.368707055664062
2.48788950830124,-0.837970581054687,8.96867941894531,-0.301669409179687
2.49657860552346,-0.699106884765625,8.8872765625,-0.335188232421875
2.50526770274568,-0.617704028320312,8.89685336914062,-0.330399829101562
2.5139567999679,-0.45968671875,8.9255837890625,-0.15322890625
2.52264781505035,-0.32561142578125,8.9255837890625,-0.1149216796875
2.53133883013281,-0.24899697265625,8.93037219238281,-0.239420166015625
2.54002984521526,-0.148440502929687,9.02135185546875,-0.282515795898438
2.54872282405639,-0.0383072265625,9.07402429199219,-0.3064578125
2.55741580289752,0.047884033203125,9.18894597167969,-0.3064578125
2.56610878173865,0.181959326171875,9.29907924804687,-0.387860668945312
2.57494595686887,0.330399829101562,9.44751975097656,-0.483628735351562
2.5837831319991,0.397437475585937,9.59596025390625,-0.560243188476563
2.59262030712932,0.483628735351562,9.66299790039063,-0.665588061523437
2.6014654209531,0.565031591796875,9.86889924316406,-0.718260498046875
2.61031053477689,0.59376201171875,9.85932243652344,-0.78529814453125
2.61915564860067,0.718260498046875,9.883264453125,-0.780509741210937
2.6280157680668,0.737414111328125,9.95987890625,-0.794874951171875
2.63687588753294,0.866701000976562,9.86889924316406,-0.972045874023437
2.64573600699907,0.90021982421875,9.84016882324219,-0.972045874023437
2.65460191476817,1.01514150390625,9.80186159667969,-1.00556469726562
2.66346782253728,1.18273562011719,9.73482395019531,-0.9576806640625
2.67233373030638,1.29286889648437,9.72045874023437,-0.981622680664062
2.6812019199765,1.40300217285156,9.72045874023437,-0.943315454101562
2.69007010964663,1.58974990234375,9.83538041992187,-0.814028564453125
2.69893829931675,1.64242233886719,9.86411083984375,-0.656011254882812
2.70780835758497,1.79565124511719,9.86411083984375,-0.675164868164063
2.71667841585319,1.82917006835937,10.0460701660156,-0.770932934570312
2.72554847412141,1.8770541015625,10.1562034423828,-0.780509741210937
2.75224813308409,1.38384855957031,11.0372696533203,-0.158017309570312
2.77894779204678,1.36469494628906,11.1569797363281,-0.105344873046875
2.80564745100946,1.31681091308594,11.1904985595703,-0.0430956298828125
2.81456603510234,1.31681091308594,11.2575362060547,0.0430956298828125
2.82348461919522,1.32159931640625,11.2240173828125,0.0143652099609375
2.8324032032881,1.29286889648437,11.18571015625,-0.01915361328125
2.84132378564486,1.25935007324219,11.1521913330078,-0.0239420166015625
2.85024436800162,1.26892687988281,11.0755768798828,-0.124498486328125
2.85916495035838,1.35511813964844,10.9845972167969,-0.0383072265625
2.86808738894346,1.31202250976562,10.8984059570312,-0.086191259765625
2.87700982752854,1.37427175292969,10.8361567138672,-0.028730419921875
2.88593226611363,1.43173259277344,10.7834842773437,0.076614453125
2.89485733436451,1.38384855957031,10.7068698242187,0.196324536132812
2.9037824026154,1.48919343261719,10.6829278076172,0.148440502929687
2.91270747086628,1.49877023925781,10.5775829345703,0.129286889648437
2.92169866813189,1.49877023925781,10.4913916748047,0.086191259765625
2.9306898653975,1.54665427246094,10.4243540283203,0.124498486328125
2.93968106266311,1.56101948242187,10.4099888183594,0.09576806640625
2.94867564643046,1.59932670898438,10.3908352050781,0.17238251953125
2.95767023019782,1.60411511230469,10.3142207519531,0.177170922851562
2.96666481396517,1.62326872558594,10.1562034423828,0.253785375976562
2.97566129530196,1.70467158203125,10.0748005859375,0.258573779296875
2.98465777663876,1.74776721191406,9.98382092285156,0.301669409179687
2.99365425797555,1.72861359863281,9.89762966308594,0.359130249023437
3.0026522199981,1.77649763183594,9.88805285644531,0.229843359375
3.01165018202065,1.65678754882812,9.77791958007812,0.349553442382812
3.02064814404321,1.73819040527344,9.79228479003906,0.368707055664062
3.02964737613956,1.69509477539062,9.78749638671875,0.359130249023437
3.03864660823592,1.69509477539062,9.78270798339844,0.397437475585937
3.04764584033228,1.62805712890625,9.77313117675781,0.426167895507812
3.05671504128713,1.63284553222656,9.72045874023437,0.359130249023437
3.06578424224199,1.55623107910156,9.65342109375,0.296881005859375
3.07485344319684,1.63763393554687,9.65820949707031,0.272938989257812
3.07696111165385,1.55144267578125,9.58638344726563,0.220266552734375
3.07906878011086,1.63763393554687,9.55286462402344,0.110133276367187
3.08117644856787,1.62326872558594,9.60074865722656,0.138863696289063
3.08328315066206,1.64242233886719,9.60553706054687,0.086191259765625
3.08538985275624,1.6472107421875,9.58159504394531,0.100556469726563
3.08749655485042,1.65678754882812,9.576806640625,0.067037646484375
3.0895672898222,1.63763393554687,9.54328781738281,0.09576806640625
3.09163802479399,1.61848032226562,9.49540378417969,0.0430956298828125
3.09370875976578,1.63763393554687,9.55286462402344,0.13407529296875
3.0957444333769,1.70467158203125,9.53371101074219,0.110133276367187
3.09778010698803,1.69030637207031,9.59117185058594,0.13407529296875
3.09981578059916,1.69988317871094,9.54328781738281,0.239420166015625
3.10215463248719,1.75255561523437,9.54328781738281,0.186747729492187
3.10449348437523,1.762132421875,9.5384994140625,0.1149216796875
3.10683233626327,1.79565124511719,9.51455739746094,0.138863696289063
3.10917156255452,1.86268889160156,9.50498059082031,0.181959326171875
3.11151078884577,1.86268889160156,9.5001921875,0.1149216796875
3.11385001513702,1.93451494140625,9.50498059082031,0.124498486328125
3.11626359038661,1.92014973144531,9.4618849609375,0.0383072265625
3.1186771656362,1.96324536132812,9.48582697753906,0.100556469726563
3.12109074088579,2.03985981445312,9.48582697753906,0.15322890625
3.12346926329248,2.02070620117187,9.47625017089844,0.177170922851562
3.12584778569917,2.09253225097656,9.39005891113281,0.1915361328125
3.12822630810587,2.13083947753906,9.45709655761719,0.239420166015625
3.13056766031942,2.11168586425781,9.40921252441406,0.1149216796875
3.13290901253297,2.2601263671875,9.39005891113281,0.143652099609375
3.13525036474653,2.23618435058594,9.39484731445313,0.1149216796875
3.13758738715321,2.30322199707031,9.423577734375,0.0718260498046875
3.13992440955989,2.42293208007812,9.40442412109375,0.028730419921875
3.14226143196657,2.43250888671875,9.42836613769531,-0.0143652099609375
3.16046585091179,2.13083947753906,9.57201823730469,-0.507570751953125
3.178670269857,2.09732065429687,9.54807622070313,-0.488417138671875
3.19687468880221,2.07816704101562,9.57201823730469,-0.45968671875
3.19906526410606,2.04464821777344,9.52892260742187,-0.521935961914062
3.20125583940992,2.03985981445312,9.54807622070313,-0.392649072265625
3.20344641471377,2.01112939453125,9.51934580078125,-0.316034619140625
3.20563693353972,2.07816704101562,9.56244143066406,-0.368707055664062
3.20782745236568,1.99676418457031,9.51455739746094,-0.368707055664062
3.21001797119163,2.02549460449219,9.50498059082031,-0.349553442382812
3.21449035639125,2.068590234375,9.52413420410156,-0.445321508789062
3.21896274159087,2.08774384765625,9.576806640625,-0.36391865234375
3.22343512679049,2.12126267089844,9.57201823730469,-0.339976635742188
3.22565497504352,2.12605107421875,9.54807622070313,-0.339976635742188
3.22787482329655,2.11647426757812,9.55286462402344,-0.36391865234375
3.23009467154958,2.16914670410156,9.576806640625,-0.316034619140625
3.23228425265851,2.18830031738281,9.5384994140625,-0.383072265625
3.23447383376744,2.24097275390625,9.52892260742187,-0.407014282226562
3.23666341487638,2.23139594726563,9.49540378417969,-0.3447650390625
3.23885412603086,2.25533796386719,9.50498059082031,-0.373495458984375
3.24104483718535,2.21703073730469,9.49540378417969,-0.430956298828125
3.24323554833984,2.22660754394531,9.47625017089844,-0.397437475585937
3.24542581038408,2.25054956054688,9.44273134765625,-0.44053310546875
3.24761607242832,2.20745393066406,9.423577734375,-0.493205541992187
3.24980633447257,2.24576115722656,9.36611689453125,-0.4213794921875
3.25206371446389,2.21224233398438,9.35654008789063,-0.435744702148437
3.25432109445522,2.28885678710938,9.35654008789063,-0.493205541992187
3.25657847444654,2.25533796386719,9.33738647460937,-0.47884033203125
3.25879972775599,2.29843359375,9.33738647460937,-0.493205541992187
3.26102098106545,2.35110603027344,9.31344445800781,-0.521935961914062
3.2632422343749,2.33195241699219,9.33259807128906,-0.55545478515625
3.2654246461045,2.34631762695312,9.37090529785156,-0.565031591796875
3.2676070578341,2.44208569335937,9.39005891113281,-0.55545478515625
3.2697894695637,2.44208569335937,9.3852705078125,-0.565031591796875
3.27196767757151,2.4516625,9.41878933105469,-0.67037646484375
3.27414588557931,2.45645090332031,9.39484731445313,-0.718260498046875
3.27632409358711,2.47081611328125,9.39005891113281,-0.699106884765625
3.27850127392564,2.48039291992187,9.36611689453125,-0.790086547851562
3.28067845426417,2.51391174316406,9.37569370117187,-0.780509741210937
3.2828556346027,2.54264216308594,9.36611689453125,-0.799663354492188
3.28533525531666,2.58573779296875,9.34696328125,-0.828393774414062
3.28781487603063,2.58094938964844,9.28471403808594,-0.82360537109375
3.29029449674459,2.57616098632812,9.31344445800781,-0.847547387695312
3.29274253738045,2.62883342285156,9.33259807128906,-0.751779321289062
3.29519057801631,2.58573779296875,9.29429084472656,-0.718260498046875
3.29763861865217,2.60489140625,9.35175168457031,-0.660799658203125
3.3000549969074,2.60010300292969,9.31344445800781,-0.656011254882812
3.30247137516263,2.55221896972656,9.35175168457031,-0.665588061523437
3.30488775341786,2.55700737304687,9.26556042480469,-0.660799658203125
3.30730307926423,2.54264216308594,9.28950244140625,-0.699106884765625
3.30971840511061,2.49475812988281,9.25119521484375,-0.608127221679687
3.31213373095699,2.55221896972656,9.27513723144531,-0.627280834960937
3.31454598697911,2.47560451660156,9.20809958496094,-0.565031591796875
3.31695824300124,2.46602770996094,9.21288798828125,-0.5746083984375
3.31937049902336,2.46602770996094,9.193734375,-0.521935961914062
3.32178052408845,2.44687409667969,9.2320416015625,-0.502782348632812
3.32419054915353,2.39899006347656,9.22725319824219,-0.531512768554687
3.32660057421862,2.36547124023437,9.20331118164062,-0.531512768554687
3.32898298052288,2.40856687011719,9.21767639160156,-0.569819995117188
3.33136538682714,2.38462485351562,9.25119521484375,-0.560243188476563
3.33374779313141,2.39899006347656,9.27992563476562,-0.507570751953125
3.3513916914061,0.713472094726562,10.0556469726563,0.454898315429687
3.3690355896808,0.627280834960937,10.1562034423828,0.464475122070312
3.38667948795549,0.521935961914062,10.1945106689453,0.426167895507812
3.38905970768208,0.474051928710937,10.2902787353516,0.311246215820312
3.39143992740866,0.354341845703125,10.3956236083984,0.229843359375
3.39382014713524,0.1915361328125,10.4866032714844,0.1915361328125
3.39619982910141,0.1149216796875,10.4626612548828,0.0239420166015625
3.39857951106758,0.01915361328125,10.5680061279297,0.13407529296875
3.40095919303374,-0.05746083984375,10.5823713378906,0.09576806640625
3.40325966514747,-0.100556469726563,10.5919481445312,0.0814028564453125
3.4055601372612,-0.205901342773437,10.6541973876953,0.028730419921875
3.40786060937492,-0.258573779296875,10.6398321777344,0.009576806640625
3.41018328276902,-0.2681505859375,10.6781394042969,-0.028730419921875
3.41250595616311,-0.277727392578125,10.7020814208984,-0.0383072265625
3.41482862955721,-0.277727392578125,10.6446205810547,-0.124498486328125
3.41715305360237,-0.2681505859375,10.6541973876953,-0.0814028564453125
3.41947747764754,-0.258573779296875,10.6829278076172,-0.100556469726563
3.4218019016927,-0.225054956054687,10.649408984375,-0.119710083007812
3.42412660785589,-0.196324536132812,10.6781394042969,-0.076614453125
3.42645131401907,-0.1915361328125,10.6541973876953,-0.05746083984375
3.42877602018226,-0.215478149414062,10.7403886474609,-0.100556469726563
3.43109676085065,-0.24899697265625,10.7403886474609,-0.0622492431640625
3.43341750151905,-0.220266552734375,10.8936175537109,0.05746083984375
3.43573824218745,-0.167594116210937,10.955866796875,0.138863696289063
3.43801203754336,-0.067037646484375,11.0660000732422,0.0047884033203125
3.44028583289926,0.0814028564453125,11.1474029296875,-0.076614453125
3.44255962825517,0.17238251953125,11.1761333496094,-0.148440502929687
3.44483146603726,0.330399829101562,11.1186725097656,-0.292092602539062
3.44710330381936,0.464475122070312,11.0420580566406,-0.234631762695312
3.44937514160145,0.617704028320312,10.9893856201172,-0.311246215820312
3.45171197743043,0.67037646484375,10.9415015869141,-0.469263525390625
3.45404881325941,0.694318481445312,11.0660000732422,-0.694318481445312
3.45638564908839,0.76614453125,11.1426145263672,-0.967257470703125
3.45872237109361,0.732625708007812,11.2288057861328,-1.17315881347656
3.46105909309884,0.761356127929687,11.2240173828125,-1.56101948242187
3.46339581510406,0.857124194335937,11.2144405761719,-1.70945998535156
3.46573286382366,0.90021982421875,11.1426145263672,-1.83395847167969
3.46806991254326,1.05344873046875,11.0755768798828,-1.8004396484375
3.47040696126285,1.21146604003906,10.9941740234375,-1.67594116210937
3.47267590201806,1.38863696289062,10.8936175537109,-1.5322890625
3.47494484277326,1.58017309570312,10.7739074707031,-1.37906015625
3.47721378352847,1.70945998535156,10.6446205810547,-1.12527478027344
3.4794801232637,1.81959326171875,10.4674496582031,-0.885854614257812
3.48174646299893,1.92014973144531,10.3525279785156,-0.603338818359375
3.48401280273416,2.068590234375,10.1274730224609,-0.397437475585937
3.48634595399285,2.16435830078125,10.0029745361328,-0.17238251953125
3.48867910525154,2.29843359375,9.95030209960937,-0.0047884033203125
3.49101225651023,2.28885678710938,9.87368764648437,0.009576806640625
3.49334481684009,2.24576115722656,9.83538041992187,0.047884033203125
3.49567737716995,2.29843359375,9.89762966308594,0.138863696289063
3.4980099374998,2.27927998046875,9.90241806640625,0.05746083984375
3.50034172135394,2.26970317382813,9.92636008300781,0.028730419921875
3.50267350520807,2.21224233398438,9.96945571289062,-0.17238251953125
3.50500528906221,2.1452046875,9.87368764648437,-0.21068974609375
3.50727322970889,2.14041628417969,9.84016882324219,-0.392649072265625
3.50954117035556,2.1068974609375,10.0125513427734,-0.411802685546875
3.51180911100224,1.99197578125,9.98382092285156,-0.373495458984375
3.51407537369758,1.92972653808594,9.94551369628906,-0.349553442382812
3.51634163639292,1.915361328125,9.89284125976562,-0.320823022460937
3.51860789908827,1.84353527832031,9.86889924316406,-0.229843359375
3.52094042523844,1.79086284179687,9.80186159667969,-0.349553442382812
3.52327295138861,1.61848032226562,9.66778630371094,-0.387860668945312
3.52560547753879,1.50834704589844,9.64863269042969,-0.550666381835937
3.52793519379315,1.46046301269531,9.64384428710937,-0.641646044921875
3.5302649100475,1.27850368652344,9.62469067382813,-0.627280834960937
3.53259462630186,1.09654436035156,9.56722983398437,-0.770932934570312
3.53486190755188,1.02471831054687,9.55286462402344,-0.78529814453125
3.53712918880189,0.799663354492188,9.53371101074219,-0.866701000976562
3.53939647005191,0.608127221679687,9.39484731445313,-0.828393774414062
3.5416635588106,0.44053310546875,9.31344445800781,-0.866701000976562
3.54393064756928,0.21068974609375,9.25598361816406,-0.967257470703125
3.54619773632797,0.047884033203125,9.193734375,-1.03908352050781
3.54839201573334,-0.201112939453125,9.11233151855469,-1.05344873046875
3.55058629513871,-0.373495458984375,9.15063874511719,-1.12527478027344
3.55278057454407,-0.536301171875,9.14106193847656,-1.1875240234375
3.55496350878884,-0.679953271484375,9.12190832519531,-1.302445703125
3.55714644303361,-0.833182177734375,9.15063874511719,-1.48440502929687
3.55932937727837,-0.967257470703125,9.13148513183594,-1.58496149902344
3.56150766634087,-1.08217915039062,9.30386765136719,-1.54186586914062
3.56368595540337,-1.25935007324219,9.47625017089844,-1.54665427246094
3.56586424446587,-1.3407529296875,9.5001921875,-1.43173259277344
3.56804061208738,-1.4173673828125,9.64863269042969,-1.29286889648437
3.57021697970889,-1.50355864257812,9.67257470703125,-1.32159931640625
3.5723933473304,-1.5705962890625,9.80665,-1.30723410644531
3.57456786013422,-1.5705962890625,9.93593688964844,-1.20667763671875
3.57674237293803,-1.608903515625,9.97424411621094,-1.05344873046875
3.57891688574185,-1.61369191894531,10.0029745361328,-0.871489404296875
3.58108898404914,-1.57538469238281,10.0891657958984,-0.833182177734375
3.58326108235643,-1.58017309570312,10.3190091552734,-0.617704028320312
3.58543318066373,-1.48440502929687,10.496180078125,-0.617704028320312
3.58783276296625,-1.48440502929687,10.57279453125,-0.531512768554687
3.59023234526877,-1.33117612304687,10.6781394042969,-0.301669409179687
3.59263192757129,-1.33117612304687,10.8744639404297,-0.239420166015625
3.59510650520803,-1.35032973632813,10.9223479736328,-0.067037646484375
3.59758108284476,-1.43173259277344,10.8888291503906,-0.047884033203125
3.6000556604815,-1.42215578613281,10.87925234375,0.028730419921875
3.60260215530572,-1.31681091308594,10.9845972167969,0.129286889648437
3.60514865012995,-1.33596452636719,11.2048637695312,0.292092602539062
3.60769514495417,-1.34554133300781,11.3006318359375,0.44053310546875
3.61029838795547,-1.39342536621094,11.2910550292969,0.689530078125
3.61290163095677,-1.66636435546875,11.2048637695312,0.751779321289062
3.61550487395807,-1.63763393554687,11.2575362060547,0.857124194335937
3.61808904938123,-1.71424838867187,11.2862666259766,1.15400520019531
3.6206732248044,-1.84353527832031,11.2910550292969,1.36948334960938
3.62325740022757,-1.90099611816406,11.0803652832031,1.41257897949219
3.62598865711776,-1.99197578125,10.8600987304687,1.46046301269531
3.62871991400795,-2.1068974609375,10.649408984375,1.47003981933594
3.63145117089815,-2.0302830078125,10.8505219238281,1.50834704589844
3.63418086480005,-2.02070620117187,10.9367131835937,1.54186586914062
3.63691055870196,-2.05422502441406,10.7834842773437,1.51313544921875
3.63964025260387,-2.08295544433594,10.5009684814453,1.50355864257812
3.66101284846969,-0.330399829101562,9.86411083984375,1.19710083007812
3.68238544433551,-0.387860668945312,9.84016882324219,1.15879360351562
3.70375804020134,-0.36391865234375,9.86411083984375,1.27371528320312
3.71150542274253,-0.253785375976562,10.0221281494141,0.876277807617187
3.71925280528373,-0.229843359375,10.0460701660156,0.809240161132812
3.72700018782493,-0.229843359375,9.92636008300781,0.7278373046875
3.73463054687438,0.354341845703125,9.84974562988281,0.694318481445312
3.74226090592383,0.407014282226562,9.93114848632812,0.679953271484375
3.74989126497329,0.407014282226562,9.93593688964844,0.608127221679687
3.752394709689,0.435744702148437,9.91199487304687,0.584185205078125
3.7548981544047,0.397437475585937,9.92636008300781,0.502782348632812
3.75740159912041,0.368707055664062,9.89284125976562,0.392649072265625
3.7599030667311,0.320823022460937,9.96466730957031,0.383072265625
3.76240453434179,0.282515795898438,9.91199487304687,0.378283862304687
3.76490600195248,0.258573779296875,9.97903251953125,0.3064578125
3.7761045986593,-0.598550415039062,9.60553706054687,0.857124194335937
3.78730319536611,-0.531512768554687,9.61032546386719,0.948103857421875
3.79850179207293,-0.47884033203125,9.59117185058594,1.02471831054687
3.80100087692535,-0.426167895507812,9.576806640625,0.924161840820312
3.80349996177778,-0.373495458984375,9.54807622070313,0.876277807617187
3.80599904663021,-0.330399829101562,9.55286462402344,0.857124194335937
3.80849983623526,-0.258573779296875,9.53371101074219,0.928950244140625
3.81100062584031,-0.234631762695312,9.50498059082031,0.9193734375
3.81350141544536,-0.148440502929687,9.45709655761719,0.775721337890625
3.81593657050177,-0.162805712890625,9.47625017089844,0.857124194335937
3.81837172555817,-0.05746083984375,9.42836613769531,0.876277807617187
3.82080688061458,-0.0383072265625,9.44273134765625,0.833182177734375
3.82337783634374,0.0239420166015625,9.44751975097656,0.694318481445312
3.8259487920729,0.119710083007812,9.43315454101563,0.699106884765625
3.82851974780206,0.148440502929687,9.41878933105469,0.713472094726562
3.8310933202847,0.143652099609375,9.47146176757813,0.694318481445312
3.83366689276734,0.215478149414062,9.41878933105469,0.646434448242187
3.83624046524997,0.263362182617187,9.44751975097656,0.579396801757812
3.83881553382638,0.277727392578125,9.423577734375,0.584185205078125
3.84139060240279,0.296881005859375,9.40921252441406,0.59376201171875
3.8439656709792,0.316034619140625,9.48103857421875,0.660799658203125
3.84654132712072,0.383072265625,9.423577734375,0.550666381835937
3.84911698326223,0.32561142578125,9.41400092773437,0.636857641601562
3.85169263940375,0.3064578125,9.39484731445313,0.617704028320312
3.85412646112683,0.339976635742188,9.38048210449219,0.565031591796875
3.85656028284991,0.282515795898438,9.37090529785156,0.560243188476563
3.85899410457299,0.316034619140625,9.33738647460937,0.507570751953125
3.86142230954259,0.339976635742188,9.31344445800781,0.565031591796875
3.8638505145122,0.354341845703125,9.33259807128906,0.541089575195312
3.86627871948181,0.40222587890625,9.35175168457031,0.531512768554687
3.86869421959033,0.416591088867187,9.35654008789063,0.565031591796875
3.87110971969885,0.464475122070312,9.37090529785156,0.617704028320312
3.87352521980736,0.464475122070312,9.36611689453125,0.665588061523437
3.88086786466419,-0.148440502929687,10.0077629394531,0.761356127929687
3.88821050952101,-0.162805712890625,10.0748005859375,0.76614453125
3.89555315437784,-0.17238251953125,10.1131078125,0.737414111328125
3.89800970506143,-0.1149216796875,10.189722265625,0.732625708007812
3.90046625574502,-0.110133276367187,10.189722265625,0.7278373046875
3.90292280642861,0.028730419921875,10.1992990722656,0.742202514648437
3.90536447275889,0.086191259765625,10.1992990722656,0.703895288085937
3.90780613908918,0.201112939453125,10.2136642822266,0.67037646484375
3.91024780541946,0.316034619140625,10.2950671386719,0.703895288085937
3.91267843280661,0.416591088867187,10.3285859619141,0.656011254882812
3.91510906019375,0.584185205078125,10.3142207519531,0.636857641601562
3.9175396875809,0.59376201171875,10.1322614257812,0.641646044921875
3.91996887193419,0.656011254882812,10.3860468017578,0.636857641601562
3.92239805628749,0.675164868164063,10.3908352050781,0.703895288085937
3.92482724064078,0.761356127929687,10.3860468017578,0.684741674804688
3.92732592846633,0.814028564453125,10.3142207519531,0.569819995117188
3.92982461629188,0.780509741210937,10.26633671875,0.502782348632812
3.93232330411743,0.828393774414062,10.189722265625,0.488417138671875
3.93482362855319,0.818816967773437,10.1657802490234,0.435744702148437
3.93732395298896,0.818816967773437,10.1370498291016,0.4979939453125
3.93982427742472,0.842758984375,10.1370498291016,0.469263525390625
3.94232445776325,0.794874951171875,10.1370498291016,0.565031591796875
3.94482463810178,0.82360537109375,10.1226846191406,0.531512768554687
3.94732481844031,0.833182177734375,10.0891657958984,0.579396801757812
3.94976124389604,0.78529814453125,10.0317049560547,0.598550415039062
3.95219766935178,0.76614453125,10.0556469726563,0.617704028320312
3.95463409480752,0.790086547851562,10.0029745361328,0.521935961914062
3.95706948803668,0.713472094726562,10.0508585693359,0.536301171875
3.95950488126583,0.7278373046875,9.99339772949219,0.526724365234375
3.96194027449499,0.737414111328125,9.9981861328125,0.47884033203125
3.96444603133094,0.67037646484375,9.9981861328125,0.493205541992187
3.96695178816688,0.636857641601562,9.97424411621094,0.40222587890625
3.96945754500283,0.63206923828125,10.0029745361328,0.368707055664062
3.97196699823635,0.63206923828125,10.0700121826172,0.407014282226562
3.97447645146988,0.560243188476563,10.0460701660156,0.359130249023437
3.97698590470341,0.521935961914062,10.0412817626953,0.387860668945312
3.97949668117909,0.488417138671875,10.0891657958984,0.311246215820312
3.98200745765476,0.435744702148437,10.0891657958984,0.258573779296875
3.98451823413043,0.359130249023437,10.1274730224609,0.36391865234375
3.98696141490301,0.316034619140625,10.1609918457031,0.40222587890625
3.98940459567559,0.220266552734375,10.1609918457031,0.339976635742188
3.99184777644817,0.201112939453125,10.1992990722656,0.36391865234375
3.99429159621816,0.148440502929687,10.2088758789062,0.469263525390625
3.99673541598815,0.0814028564453125,10.2040874755859,0.416591088867187
3.99917923575813,0.0383072265625,10.2280294921875,0.450109912109375
4.00167625322773,-0.009576806640625,10.2567599121094,0.397437475585937
4.00417327069733,-0.0526724365234375,10.2567599121094,0.454898315429687
4.00667028816693,-0.05746083984375,10.2328178955078,0.435744702148437
4.00917070027631,-0.119710083007812,10.26633671875,0.411802685546875
4.0116711123857,-0.138863696289063,10.2567599121094,0.469263525390625
4.01417152449508,-0.124498486328125,10.2519715087891,0.450109912109375
4.01667282766348,-0.162805712890625,10.2854903320312,0.450109912109375
4.01917413083189,-0.15322890625,10.26633671875,0.383072265625
4.02167543400029,-0.1149216796875,10.3142207519531,0.36391865234375
4.02388206019387,-0.138863696289063,10.3046439453125,0.397437475585937
4.02608868638745,-0.15322890625,10.3046439453125,0.349553442382812
4.02829531258104,-0.105344873046875,10.3094323486328,0.368707055664062
4.03050456203849,-0.110133276367187,10.3237975585937,0.311246215820312
4.03271381149594,-0.0718260498046875,10.342951171875,0.330399829101562
4.03492306095339,0.009576806640625,10.3381627685547,0.40222587890625
4.03711339558878,0.0622492431640625,10.3668931884766,0.373495458984375
4.03930373022417,0.13407529296875,10.2998555419922,0.416591088867187
4.04149406485956,0.162805712890625,10.3333743652344,0.373495458984375
4.04368928599671,0.253785375976562,10.2998555419922,0.44053310546875
4.04588450713386,0.292092602539062,10.2615483154297,0.430956298828125
4.04807972827101,0.378283862304687,10.2136642822266,0.430956298828125
4.05027665676493,0.450109912109375,10.1705686523437,0.387860668945312
4.05247358525885,0.531512768554687,10.1226846191406,0.32561142578125
4.05467051375277,0.598550415039062,10.0891657958984,0.32561142578125
4.05686944148714,0.684741674804688,10.0652237792969,0.3064578125
4.05906836922152,0.656011254882812,9.97903251953125,0.32561142578125
4.06126729695589,0.689530078125,9.93593688964844,0.277727392578125
4.06348155284781,0.799663354492188,9.91199487304687,0.3447650390625
4.06569580873973,0.837970581054687,9.91199487304687,0.349553442382812
4.06791006463165,0.885854614257812,9.88805285644531,0.392649072265625
4.07026080342291,0.842758984375,9.84974562988281,0.277727392578125
4.07261154221416,0.895431420898437,9.7683427734375,0.258573779296875
4.07496228100542,0.895431420898437,9.75397756347656,0.258573779296875
4.0773175111595,0.909796630859375,9.73482395019531,0.201112939453125
4.07967274131358,0.871489404296875,9.68215151367187,0.143652099609375
4.08202797146766,0.857124194335937,9.68215151367187,0.196324536132812
4.08438672282402,0.799663354492188,9.72524714355469,0.119710083007812
4.08674547418038,0.761356127929687,9.65820949707031,0.1149216796875
4.08910422553675,0.751779321289062,9.68693991699219,0.119710083007812
4.09146638383755,0.617704028320312,9.67257470703125,0.076614453125
4.09382854213835,0.55545478515625,9.70130512695312,0.105344873046875
4.09619070043915,0.493205541992187,9.71567033691406,0.086191259765625
4.09855621501166,0.383072265625,9.73961235351562,0.138863696289063
4.10092172958417,0.32561142578125,9.74440075683594,0.143652099609375
4.10328724415668,0.24899697265625,9.81143840332031,0.21068974609375
4.10565822079514,0.124498486328125,9.80186159667969,0.1149216796875
4.1080291974336,0.05746083984375,9.75397756347656,0.119710083007812
4.11040017407205,-0.0383072265625,9.79228479003906,0.09576806640625
4.11763274818229,-0.493205541992187,9.80665,-0.138863696289063
4.12486532229253,-0.445321508789062,9.79228479003906,-0.124498486328125
4.13209789640277,-0.445321508789062,9.78749638671875,-0.13407529296875
4.13450030802389,-0.36391865234375,9.78749638671875,-0.05746083984375
4.13690271964501,-0.354341845703125,9.74440075683594,-0.086191259765625
4.13930513126613,-0.272938989257812,9.71088193359375,-0.076614453125
4.14167754500311,-0.220266552734375,9.69651672363281,-0.09576806640625
4.14404995874009,-0.158017309570312,9.66778630371094,-0.0814028564453125
4.14642237247708,-0.05746083984375,9.64384428710937,-0.129286889648437
4.14879733981651,-0.067037646484375,9.66778630371094,-0.0622492431640625
4.15117230715594,0.0430956298828125,9.69651672363281,-0.0047884033203125
4.15354727449537,0.129286889648437,9.6917283203125,0.009576806640625
4.1559224624294,0.196324536132812,9.68215151367187,0.086191259765625
4.15829765036344,0.292092602539062,9.67736311035156,0.0383072265625
4.16067283829747,0.373495458984375,9.73961235351562,0.0814028564453125
4.16309145298932,0.47884033203125,9.730035546875,0.177170922851562
4.16551006768116,0.603338818359375,9.74918916015625,0.162805712890625
4.167928682373,0.6512228515625,9.77313117675781,0.244208569335937
4.17035061227755,0.756567724609375,9.74440075683594,0.253785375976562
4.1727725421821,0.780509741210937,9.71567033691406,0.158017309570312
4.17519447208664,0.909796630859375,9.71088193359375,0.17238251953125
4.17756562670905,0.9576806640625,9.71567033691406,0.215478149414062
4.17993678133144,1.0342951171875,9.6917283203125,0.13407529296875
4.18230793595384,1.07260234375,9.62947907714844,0.17238251953125
4.18468229576286,1.13485158691406,9.62469067382813,0.138863696289063
4.18705665557188,1.20188923339844,9.69651672363281,0.086191259765625
4.1894310153809,1.18273562011719,9.67736311035156,0.0718260498046875
4.19185708916561,1.20188923339844,9.71567033691406,0.05746083984375
4.19428316295031,1.23061965332031,9.70609353027344,0.0047884033203125
4.19670923673502,1.18273562011719,9.69651672363281,0.143652099609375
4.19913852818468,1.17315881347656,9.73961235351562,0.05746083984375
4.20156781963435,1.13963999023438,9.77313117675781,0.028730419921875
4.20399711108402,1.13006318359375,9.75876596679687,-0.0909796630859375
4.20642720190435,1.08696755371094,9.77791958007812,-0.076614453125
4.20885729272467,1.04866032714844,9.81143840332031,-0.201112939453125
4.211287383545,0.991199487304687,9.84016882324219,-0.244208569335937
4.21341638115785,0.9576806640625,9.90720646972656,-0.311246215820312
4.21554537877069,0.933738647460937,10.0029745361328,-0.263362182617187
4.21767437638354,0.909796630859375,10.0317049560547,-0.296881005859375
4.2198162192655,0.814028564453125,10.0460701660156,-0.239420166015625
4.22195806214746,0.76614453125,10.0508585693359,-0.3064578125
4.22409990502942,0.74699091796875,10.0891657958984,-0.335188232421875
4.22628385793739,0.684741674804688,10.1083194091797,-0.354341845703125
4.22846781084537,0.7278373046875,10.1849338623047,-0.335188232421875
4.23065176375334,0.584185205078125,10.1992990722656,-0.430956298828125
4.23283353643127,0.565031591796875,10.2280294921875,-0.426167895507812
4.23501530910919,0.507570751953125,10.2950671386719,-0.416591088867187
4.23719708178712,0.45968671875,10.2759135253906,-0.45968671875
4.23937897577583,0.4213794921875,10.3094323486328,-0.502782348632812
4.24156086976455,0.335188232421875,10.2759135253906,-0.488417138671875
4.24374276375326,0.335188232421875,10.2423947021484,-0.450109912109375
4.24592495233834,0.311246215820312,10.2423947021484,-0.32561142578125
4.24810714092341,0.2681505859375,10.1753570556641,-0.3447650390625
4.25028932950849,0.244208569335937,10.2567599121094,-0.339976635742188
4.25247149270294,0.258573779296875,10.2088758789062,-0.387860668945312
4.25465365589739,0.282515795898438,10.1466266357422,-0.407014282226562
4.25683581909183,0.24899697265625,10.0939541992188,-0.316034619140625
4.25901341543823,0.301669409179687,10.0891657958984,-0.3064578125
4.26119101178462,0.215478149414062,10.26633671875,-0.301669409179687
4.26336860813102,0.282515795898438,10.2950671386719,-0.258573779296875
4.26560840831548,0.272938989257812,10.2615483154297,-0.253785375976562
4.26784820849995,0.316034619140625,10.2280294921875,-0.253785375976562
4.27008800868442,0.40222587890625,10.1418382324219,-0.32561142578125
4.27232419250294,0.407014282226562,10.1562034423828,-0.225054956054687
4.27456037632146,0.445321508789062,10.2232410888672,-0.220266552734375
4.27679656013999,0.493205541992187,10.2615483154297,-0.158017309570312
4.27902715265767,0.502782348632812,10.2328178955078,-0.129286889648437
4.28125774517535,0.521935961914062,10.2423947021484,-0.205901342773437
4.28348833769303,0.550666381835937,10.2471831054687,-0.143652099609375
4.28571140618418,0.588973608398437,10.2711251220703,-0.158017309570312
4.28793447467533,0.617704028320312,10.2567599121094,-0.143652099609375
4.29015754316648,0.675164868164063,10.2759135253906,-0.148440502929687
4.29237299919794,0.713472094726562,10.2519715087891,-0.110133276367187
4.29458845522939,0.7278373046875,10.2854903320312,-0.181959326171875
4.29680391126084,0.761356127929687,10.26633671875,-0.1915361328125
4.2991510066772,0.814028564453125,10.2807019287109,-0.119710083007812
4.30149810209357,0.78529814453125,10.2136642822266,-0.17238251953125
4.30384519750993,0.814028564453125,10.1945106689453,-0.13407529296875
4.30616889786802,0.78529814453125,10.1945106689453,-0.129286889648437
4.30849259822611,0.828393774414062,10.2184526855469,-0.138863696289063
4.3108162985842,0.775721337890625,10.2280294921875,-0.0526724365234375
4.31311727937845,0.775721337890625,10.2328178955078,-0.148440502929687
4.31541826017269,0.8044517578125,10.1705686523437,-0.09576806640625
4.31771924096694,0.8810662109375,10.1849338623047,-0.076614453125
4.32002052867309,0.828393774414062,10.1849338623047,-0.148440502929687
4.32232181637924,0.847547387695312,10.1562034423828,-0.143652099609375
4.32462310408539,0.847547387695312,10.1466266357422,-0.186747729492187
4.32691320944563,0.8810662109375,10.1609918457031,-0.201112939453125
4.32920331480587,0.871489404296875,10.1609918457031,-0.24899697265625
4.33149342016611,0.828393774414062,10.1657802490234,-0.32561142578125
4.33377086216914,0.828393774414062,10.1370498291016,-0.387860668945312
4.33604830417217,0.8044517578125,10.0939541992188,-0.411802685546875
4.3383257461752,0.703895288085937,10.1322614257812,-0.426167895507812
4.34060218627938,0.703895288085937,10.0795889892578,-0.45968671875
4.34287862638356,0.689530078125,10.0891657958984,-0.521935961914062
4.34515506648773,0.63206923828125,10.0652237792969,-0.627280834960937
4.35094981087255,0.3447650390625,9.84016882324219,-0.565031591796875
4.35674455525736,0.277727392578125,9.883264453125,-0.569819995117188
4.36253929964218,0.28730419921875,9.82580361328125,-0.545877978515625
4.3648766188696,0.277727392578125,9.83538041992187,-0.656011254882812
4.36721393809702,0.296881005859375,9.79228479003906,-0.627280834960937
4.36955125732445,0.253785375976562,9.78749638671875,-0.569819995117188
4.37182330658661,0.244208569335937,9.75397756347656,-0.598550415039062
4.37409535584877,0.253785375976562,9.730035546875,-0.545877978515625
4.37636740511093,0.263362182617187,9.75876596679687,-0.531512768554687
4.37879345882187,0.253785375976562,9.76355437011719,-0.51714755859375
4.38121951253281,0.244208569335937,9.68693991699219,-0.579396801757812
4.38364556624376,0.2681505859375,9.66778630371094,-0.502782348632812
4.38607247097469,0.28730419921875,9.72524714355469,-0.51714755859375
4.38849937570563,0.253785375976562,9.6917283203125,-0.536301171875
4.39092628043656,0.258573779296875,9.64384428710937,-0.55545478515625
4.39335454486798,0.28730419921875,9.65342109375,-0.526724365234375
4.39578280929941,0.301669409179687,9.64863269042969,-0.47884033203125
4.39821107373083,0.335188232421875,9.71567033691406,-0.507570751953125
4.40063813818397,0.3447650390625,9.65820949707031,-0.521935961914062
4.4030652026371,0.392649072265625,9.72524714355469,-0.47884033203125
4.40549226709024,0.359130249023437,9.73961235351562,-0.493205541992187
4.40785277989404,0.411802685546875,9.73961235351562,-0.44053310546875
4.41021329269784,0.392649072265625,9.76355437011719,-0.483628735351562
4.41257380550164,0.45968671875,9.75397756347656,-0.40222587890625
4.41493485693393,0.454898315429687,9.77791958007812,-0.392649072265625
4.41729590836622,0.454898315429687,9.75876596679687,-0.36391865234375
4.41965695979852,0.469263525390625,9.75876596679687,-0.335188232421875
4.42201839360929,0.4979939453125,9.80186159667969,-0.36391865234375
4.42437982742006,0.488417138671875,9.75876596679687,-0.354341845703125
4.42674126123083,0.483628735351562,9.79228479003906,-0.335188232421875
4.43502014035408,0.565031591796875,10.1418382324219,-0.67037646484375
4.44329901947734,0.55545478515625,10.1609918457031,-0.718260498046875
4.45157789860059,0.512359155273437,10.0795889892578,-0.718260498046875
4.45392580083582,0.531512768554687,10.0987426025391,-0.70868369140625
4.45627370307106,0.531512768554687,10.1609918457031,-0.723048901367187
4.45862160530629,0.531512768554687,10.2280294921875,-0.660799658203125
4.4609727011179,0.550666381835937,10.2376062988281,-0.675164868164063
4.4633237969295,0.603338818359375,10.342951171875,-0.67037646484375
4.46567489274111,0.565031591796875,10.2854903320312,-0.6512228515625
4.46802649658224,0.526724365234375,10.1131078125,-0.814028564453125
4.47037810042337,0.55545478515625,10.1466266357422,-0.78529814453125
4.47272970426451,0.627280834960937,10.2088758789062,-0.756567724609375
4.47504824164514,0.483628735351562,10.0939541992188,-0.780509741210937
4.47736677902577,0.44053310546875,10.0125513427734,-0.876277807617187
4.4796853164064,0.493205541992187,10.1226846191406,-0.74699091796875
4.48210959445546,0.4979939453125,10.1035310058594,-0.770932934570312
4.48453387250451,0.569819995117188,10.1849338623047,-0.679953271484375
4.48695815055356,0.454898315429687,10.0748005859375,-0.7278373046875
4.48938795328794,0.493205541992187,10.0556469726563,-0.756567724609375
4.49181775602231,0.454898315429687,10.0317049560547,-0.732625708007812
4.49424755875668,0.4979939453125,10.0125513427734,-0.833182177734375
4.49667962272156,0.59376201171875,10.1083194091797,-0.770932934570312
4.49911168668643,0.526724365234375,10.0508585693359,-0.723048901367187
4.50154375065131,0.560243188476563,10.0077629394531,-0.842758984375
4.50397725108532,0.584185205078125,9.96945571289062,-0.7278373046875
4.50641075151934,0.469263525390625,9.87847604980469,-0.833182177734375
4.50884425195335,0.51714755859375,9.93114848632812,-0.799663354492188
4.51117861154537,0.569819995117188,9.98860932617187,-0.703895288085937
4.51351297113738,0.545877978515625,10.0173397460938,-0.737414111328125
4.5158473307294,0.55545478515625,9.94551369628906,-0.737414111328125
4.51803389057098,0.488417138671875,9.85453403320312,-0.6512228515625
4.52022045041256,0.4979939453125,9.83538041992187,-0.675164868164063
4.52240701025414,0.521935961914062,9.84974562988281,-0.703895288085937
4.52451986404102,0.502782348632812,9.79228479003906,-0.756567724609375
4.52663271782789,0.51714755859375,9.85932243652344,-0.794874951171875
4.52874557161476,0.521935961914062,9.91678327636719,-0.67037646484375
4.53384293733742,0.536301171875,9.95987890625,-0.928950244140625
4.53894030306007,0.483628735351562,10.0173397460938,-0.928950244140625
4.54403766878272,0.521935961914062,10.0077629394531,-0.97683427734375
4.54592204085304,0.507570751953125,10.0508585693359,-0.948103857421875
4.54780641292336,0.531512768554687,10.0125513427734,-1.05344873046875
4.54969078499369,0.521935961914062,10.0173397460938,-0.991199487304687
4.55157570241992,0.47884033203125,10.0604353759766,-1.08696755371094
4.55346061984615,0.397437475585937,10.1131078125,-1.05344873046875
4.55534553727239,0.512359155273437,10.1274730224609,-1.05823713378906
4.55723636392172,0.445321508789062,10.1131078125,-0.952892260742187
4.55912719057105,0.445321508789062,10.0843773925781,-0.981622680664062
4.56101801722039,0.44053310546875,10.0700121826172,-0.962469067382812
4.56291223625251,0.512359155273437,10.0939541992188,-0.909796630859375
4.56480645528464,0.4979939453125,10.0604353759766,-0.924161840820312
4.56670067431677,0.435744702148437,9.98382092285156,-1.00556469726562
4.56865904777597,0.526724365234375,10.0748005859375,-1.01514150390625
4.57061742123518,0.397437475585937,10.0029745361328,-0.97683427734375
4.57257579469438,0.3447650390625,10.0029745361328,-1.10133276367187
4.57453930435149,0.407014282226562,10.0317049560547,-1.06302553710937
4.57650281400861,0.45968671875,10.0508585693359,-1.09175595703125
4.57846632366573,0.493205541992187,10.0795889892578,-1.10612116699219
4.58043321366139,0.579396801757812,10.0987426025391,-1.03908352050781
4.58240010365705,0.536301171875,10.0269165527344,-1.1109095703125
4.58436699365272,0.488417138671875,10.0652237792969,-1.10133276367187
4.58633713475516,0.541089575195312,10.0843773925781,-1.13963999023438
4.5883072758576,0.579396801757812,10.0508585693359,-1.21625444335937
4.59027741696004,0.617704028320312,10.0748005859375,-1.02950671386719
4.59225120315793,0.608127221679687,10.0652237792969,-0.995987890625
4.59422498935583,0.588973608398437,10.0700121826172,-0.995987890625
4.59619877555372,0.59376201171875,10.0748005859375,-1.02471831054687
4.59830256624381,0.6512228515625,10.0939541992188,-0.995987890625
4.60040635693391,0.675164868164063,10.0508585693359,-0.995987890625
4.602510147624,0.608127221679687,10.0269165527344,-0.895431420898437
4.60461972181019,0.531512768554687,10.0412817626953,-0.986411083984375
4.60672929599638,0.5746083984375,10.0269165527344,-0.995987890625
4.60883887018257,0.608127221679687,10.0939541992188,-1.00556469726562
4.61096588931233,0.59376201171875,10.1083194091797,-0.962469067382812
4.61309290844209,0.622492431640625,10.1083194091797,-0.924161840820312
4.61521992757184,0.74699091796875,10.1514150390625,-0.871489404296875
4.61735096685137,0.679953271484375,10.1514150390625,-0.78529814453125
4.61948200613089,0.684741674804688,10.1705686523437,-0.933738647460937
4.62161304541041,0.703895288085937,10.0795889892578,-0.847547387695312
4.62374719020208,0.7278373046875,10.0987426025391,-0.814028564453125
4.62588133499375,0.761356127929687,10.0891657958984,-0.885854614257812
4.62801547978542,0.770932934570312,10.0939541992188,-0.852335791015625
4.63015242190781,0.790086547851562,10.0748005859375,-0.876277807617187
4.6322893640302,0.7278373046875,10.0604353759766,-0.895431420898437
4.63442630615259,0.70868369140625,10.0508585693359,-0.847547387695312
4.64107333903015,0.569819995117188,10.1035310058594,-0.928950244140625
4.64772037190771,0.541089575195312,10.1226846191406,-0.972045874023437
4.65436740478526,0.550666381835937,10.1035310058594,-0.933738647460937
4.65661473063838,0.565031591796875,10.0987426025391,-1.00077629394531
4.65886205649149,0.55545478515625,10.1274730224609,-0.981622680664062
4.66110938234461,0.545877978515625,10.1562034423828,-1.02471831054687
4.66334471370446,0.565031591796875,10.2040874755859,-1.01514150390625
4.66558004506431,0.550666381835937,10.1753570556641,-0.967257470703125
4.66781537642416,0.541089575195312,10.2136642822266,-0.895431420898437
4.67003858471002,0.545877978515625,10.1322614257812,-0.914585034179687
4.67226179299589,0.526724365234375,10.1418382324219,-0.8810662109375
4.67448500128175,0.55545478515625,10.0748005859375,-0.828393774414062
4.67676744467505,0.474051928710937,10.1226846191406,-0.866701000976562
4.67904988806835,0.502782348632812,10.1226846191406,-0.818816967773437
4.68133233146165,0.483628735351562,10.1035310058594,-0.82360537109375
4.68361258818908,0.454898315429687,10.0556469726563,-0.828393774414062
4.68589284491651,0.454898315429687,10.0843773925781,-0.761356127929687
4.68817310164394,0.407014282226562,10.0843773925781,-0.775721337890625
4.69045149237743,0.416591088867187,10.0221281494141,-0.761356127929687
4.69272988311091,0.416591088867187,10.0508585693359,-0.852335791015625
4.69500827384439,0.392649072265625,10.036493359375,-0.751779321289062
4.7005574952257,0.450109912109375,10.0700121826172,-0.833182177734375
4.70610671660701,0.392649072265625,10.0700121826172,-0.909796630859375
4.71165593798833,0.407014282226562,10.0939541992188,-0.814028564453125
4.71379073942061,0.354341845703125,10.1514150390625,-0.833182177734375
4.7159255408529,0.349553442382812,10.1514150390625,-0.837970581054687
4.71806034228518,0.373495458984375,10.1657802490234,-0.737414111328125
4.72019524766711,0.335188232421875,10.1514150390625,-0.751779321289062
4.72233015304903,0.383072265625,10.1466266357422,-0.723048901367187
4.72446505843095,0.335188232421875,10.1226846191406,-0.70868369140625
4.7290292217339,0.335188232421875,10.0843773925781,-0.641646044921875
4.73359338503686,0.32561142578125,10.0748005859375,-0.59376201171875
4.73815754833981,0.349553442382812,10.0795889892578,-0.684741674804688
4.74049147249347,0.359130249023437,10.0317049560547,-0.689530078125
4.74282539664712,0.292092602539062,10.0173397460938,-0.699106884765625
4.74515932080078,0.28730419921875,10.0269165527344,-0.751779321289062
4.74756438015409,0.3064578125,9.97424411621094,-0.742202514648437
4.74996943950741,0.296881005859375,9.97903251953125,-0.718260498046875
4.75237449886072,0.3064578125,9.95509050292969,-0.684741674804688
4.75484975389542,0.282515795898438,9.89762966308594,-0.699106884765625
4.75732500893013,0.258573779296875,9.81143840332031,-0.756567724609375
4.75980026396484,0.311246215820312,9.97424411621094,-0.775721337890625
4.76225636884763,0.320823022460937,10.0125513427734,-0.6512228515625
4.76471247373043,0.320823022460937,9.98382092285156,-0.598550415039062
4.76716857861322,0.359130249023437,9.99339772949219,-0.521935961914062
4.769610349121,0.277727392578125,9.93114848632812,-0.646434448242187
4.77205211962879,0.349553442382812,9.90720646972656,-0.656011254882812
4.77449389013657,0.330399829101562,9.90720646972656,-0.675164868164063
4.78777405566388,0.378283862304687,9.89762966308594,-1.02471831054687
4.8010542211912,0.3447650390625,9.89284125976562,-1.01514150390625
4.81433438671851,0.330399829101562,9.85932243652344,-1.07260234375
4.81669512635611,0.316034619140625,9.87847604980469,-1.01035310058594
4.8190558659937,0.311246215820312,9.84974562988281,-0.981622680664062
4.8214166056313,0.311246215820312,9.85453403320312,-0.924161840820312
4.8273162698566,0.373495458984375,9.86411083984375,-0.828393774414062
4.83321593408191,0.316034619140625,9.81622680664062,-0.928950244140625
4.83911559830722,0.349553442382812,9.85932243652344,-0.852335791015625
4.84621656499561,0.335188232421875,9.77791958007812,-0.718260498046875
4.85331753168399,0.3447650390625,9.84974562988281,-0.732625708007812
4.86041849837238,0.3064578125,9.84016882324219,-0.679953271484375
4.86282826736109,0.320823022460937,9.82580361328125,-0.684741674804688
4.86523803634979,0.296881005859375,9.84016882324219,-0.703895288085937
4.86764780533849,0.3447650390625,9.86411083984375,-0.63206923828125
4.8700723680555,0.311246215820312,9.88805285644531,-0.684741674804688
4.87249693077251,0.330399829101562,9.87847604980469,-0.689530078125
4.87492149348952,0.292092602539062,9.86411083984375,-0.665588061523437
4.87729555305983,0.383072265625,9.86889924316406,-0.684741674804688
4.87966961263013,0.378283862304687,9.77791958007812,-0.699106884765625
4.88204367220044,0.3447650390625,9.81622680664062,-0.67037646484375
4.88441984722211,0.339976635742188,9.80186159667969,-0.675164868164063
4.88679602224378,0.368707055664062,9.82101520996094,-0.694318481445312
4.88917219726545,0.354341845703125,9.79707319335937,-0.627280834960937
4.8916672041014,0.3447650390625,9.81622680664062,-0.675164868164063
4.89416221093734,0.349553442382812,9.82580361328125,-0.703895288085937
4.89665721777328,0.373495458984375,9.82580361328125,-0.70868369140625
4.90284059556733,0.320823022460937,9.92636008300781,-0.699106884765625
4.90902397336138,0.32561142578125,9.9215716796875,-0.713472094726562
4.91520735115543,0.335188232421875,9.93114848632812,-0.76614453125
4.91763537632904,0.316034619140625,9.91678327636719,-0.737414111328125
4.92006340150265,0.272938989257812,9.95030209960937,-0.7278373046875
4.92249142667626,0.272938989257812,9.95030209960937,-0.665588061523437
4.9249915063746,0.296881005859375,9.93593688964844,-0.63206923828125
4.92749158607293,0.263362182617187,9.91678327636719,-0.6512228515625
4.92999166577127,0.28730419921875,9.95030209960937,-0.622492431640625
4.93249320694966,0.24899697265625,9.96466730957031,-0.612915625
4.93499474812805,0.263362182617187,9.96466730957031,-0.579396801757812
4.93749628930644,0.272938989257812,9.97424411621094,-0.550666381835937
4.93999204733597,0.311246215820312,9.96466730957031,-0.588973608398437
4.9424878053655,0.292092602539062,9.95509050292969,-0.588973608398437
4.94498356339503,0.311246215820312,9.96945571289062,-0.598550415039062
4.94740685744884,0.234631762695312,9.95987890625,-0.560243188476563
4.94983015150265,0.282515795898438,9.96466730957031,-0.617704028320312
4.95225344555647,0.239420166015625,9.95509050292969,-0.603338818359375
4.95941073130946,0.301669409179687,9.93593688964844,-0.474051928710937
4.96656801706245,0.292092602539062,9.93114848632812,-0.488417138671875
4.97372530281544,0.32561142578125,9.94551369628906,-0.560243188476563
4.97620198320824,0.301669409179687,9.9215716796875,-0.4979939453125
4.97867866360103,0.316034619140625,9.95509050292969,-0.502782348632812
4.98115534399383,0.330399829101562,9.9981861328125,-0.51714755859375
4.9836344077959,0.292092602539062,9.95509050292969,-0.55545478515625
4.98611347159797,0.28730419921875,9.96945571289062,-0.55545478515625
4.98859253540004,0.282515795898438,10.0173397460938,-0.536301171875
4.99353446812573,0.253785375976562,9.97903251953125,-0.612915625
4.99847640085141,0.292092602539062,9.98382092285156,-0.59376201171875
5.00341833357709,0.292092602539062,9.9981861328125,-0.617704028320312
5.00586059920209,0.263362182617187,10.0125513427734,-0.636857641601562
5.00830286482708,0.28730419921875,9.97424411621094,-0.703895288085937
5.01074513045208,0.28730419921875,9.97424411621094,-0.617704028320312
5.01318139086875,0.272938989257812,10.0173397460938,-0.67037646484375
5.01561765128541,0.263362182617187,10.0173397460938,-0.660799658203125
5.01805391170208,0.2681505859375,10.0604353759766,-0.656011254882812
5.02048849302805,0.28730419921875,10.0460701660156,-0.656011254882812
5.02292307435402,0.253785375976562,10.0269165527344,-0.70868369140625
5.02535765567998,0.253785375976562,10.1083194091797,-0.684741674804688
5.02900703757017,0.17238251953125,10.1035310058594,-0.70868369140625
5.03265641946036,0.143652099609375,10.0652237792969,-0.7278373046875
5.03630580135055,0.129286889648437,10.036493359375,-0.723048901367187
5.04356978518303,0.220266552734375,9.76355437011719,-0.761356127929687
5.05083376901552,0.201112939453125,9.75397756347656,-0.756567724609375
5.058097752848,0.253785375976562,9.81622680664062,-0.8044517578125
5.06050103908932,0.234631762695312,9.7683427734375,-0.828393774414062
5.06290432533064,0.272938989257812,9.82580361328125,-0.718260498046875
5.06530761157197,0.225054956054687,9.82101520996094,-0.732625708007812
5.06771005286971,0.239420166015625,9.82101520996094,-0.76614453125
5.07011249416745,0.32561142578125,9.80186159667969,-0.656011254882812
5.07251493546519,0.292092602539062,9.82101520996094,-0.770932934570312
5.07486770640707,0.277727392578125,9.78749638671875,-0.76614453125
5.07722047734894,0.28730419921875,9.80186159667969,-0.756567724609375
5.07957324829081,0.316034619140625,9.77313117675781,-0.814028564453125
5.08192475859898,0.2681505859375,9.77791958007812,-0.790086547851562
5.08427626890715,0.263362182617187,9.75876596679687,-0.857124194335937
5.08662777921532,0.28730419921875,9.79228479003906,-0.837970581054687
5.08912466821269,0.258573779296875,9.84016882324219,-0.842758984375
5.09162155721006,0.28730419921875,9.83059201660156,-0.780509741210937
5.09411844620743,0.277727392578125,9.82101520996094,-0.847547387695312
5.09661578084284,0.225054956054687,9.83059201660156,-0.857124194335937
5.09911311547826,0.229843359375,9.85932243652344,-0.866701000976562
5.10161045011367,0.225054956054687,9.92636008300781,-0.852335791015625
5.1040971621362,0.229843359375,9.87368764648437,-0.770932934570312
5.10658387415874,0.24899697265625,9.91199487304687,-0.814028564453125
5.10907058618128,0.21068974609375,9.90241806640625,-0.770932934570312
5.11151587079499,0.196324536132812,9.86889924316406,-0.828393774414062
5.1139611554087,0.177170922851562,9.91199487304687,-0.8044517578125
5.11640644002242,0.196324536132812,9.91678327636719,-0.818816967773437
5.11885329852937,0.162805712890625,9.90720646972656,-0.82360537109375
5.12130015703632,0.177170922851562,9.90241806640625,-0.761356127929687
5.12374701554327,0.138863696289063,9.89284125976562,-0.770932934570312
5.12619811970996,0.148440502929687,9.91199487304687,-0.770932934570312
5.12864922387665,0.0909796630859375,9.90720646972656,-0.770932934570312
5.13110032804335,0.0909796630859375,9.93593688964844,-0.732625708007812
5.13359675056941,0.148440502929687,9.94072529296875,-0.7278373046875
5.13609317309547,0.129286889648437,9.92636008300781,-0.646434448242187
5.13858959562154,0.0909796630859375,9.96466730957031,-0.689530078125
5.14479390209941,0.028730419921875,9.9215716796875,-0.55545478515625
5.15099820857729,0.0430956298828125,9.91678327636719,-0.55545478515625
5.15720251505516,0.01915361328125,9.88805285644531,-0.55545478515625
5.15962768058249,0.0,9.89284125976562,-0.545877978515625
5.16205284610983,-0.0143652099609375,9.81622680664062,-0.598550415039062
5.16447801163716,0.0,9.83059201660156,-0.59376201171875
5.16696883846006,0.067037646484375,9.88805285644531,-0.584185205078125
5.16945966528297,0.0335188232421875,9.85932243652344,-0.622492431640625
5.17195049210588,0.0526724365234375,9.83538041992187,-0.59376201171875
5.17451729787843,0.09576806640625,9.85453403320312,-0.59376201171875
5.17708410365099,0.0430956298828125,9.87368764648437,-0.59376201171875
5.17965090942354,0.105344873046875,9.883264453125,-0.569819995117188
5.18221848510714,0.119710083007812,9.91678327636719,-0.636857641601562
5.18478606079074,0.09576806640625,9.93114848632812,-0.588973608398437
5.18735363647434,0.100556469726563,9.95509050292969,-0.603338818359375
5.18985171752904,0.143652099609375,9.93114848632812,-0.608127221679687
5.19234979858374,0.148440502929687,9.97903251953125,-0.617704028320312
5.19484787963844,0.13407529296875,9.95030209960937,-0.646434448242187
5.19727564889843,0.148440502929687,9.95509050292969,-0.588973608398437
5.19970341815843,0.196324536132812,9.96945571289062,-0.536301171875
5.20213118741842,0.201112939453125,9.96945571289062,-0.531512768554687
5.2045582045625,0.205901342773437,9.96466730957031,-0.617704028320312
5.20698522170658,0.201112939453125,9.95987890625,-0.545877978515625
5.20941223885066,0.263362182617187,9.96945571289062,-0.612915625
5.21183903181942,0.239420166015625,9.95030209960937,-0.608127221679687
5.21426582478818,0.28730419921875,9.91678327636719,-0.612915625
5.21669261775693,0.282515795898438,9.89762966308594,-0.675164868164063
5.22033055433461,0.272938989257812,9.9215716796875,-0.55545478515625
5.22396849091229,0.301669409179687,9.90241806640625,-0.550666381835937
5.22760642748997,0.292092602539062,9.94551369628906,-0.521935961914062
5.23498038816976,0.407014282226562,9.96945571289062,-0.531512768554687
5.24235434884956,0.40222587890625,9.95030209960937,-0.560243188476563
5.24972830952935,0.426167895507812,9.94551369628906,-0.569819995117188
5.25216587008976,0.378283862304687,9.93593688964844,-0.507570751953125
5.25460343065018,0.411802685546875,9.93593688964844,-0.545877978515625
5.2570409912106,0.416591088867187,9.97903251953125,-0.545877978515625
5.25947283382127,0.426167895507812,9.94072529296875,-0.627280834960937
5.26190467643194,0.426167895507812,9.9215716796875,-0.55545478515625
5.26433651904262,0.392649072265625,9.94551369628906,-0.565031591796875
5.26676942192889,0.387860668945312,9.94072529296875,-0.526724365234375
5.26920232481516,0.397437475585937,9.88805285644531,-0.569819995117188
5.27163522770144,0.416591088867187,9.85453403320312,-0.565031591796875
5.27399288623008,0.416591088867187,9.9215716796875,-0.536301171875
5.27635054475871,0.407014282226562,9.89284125976562,-0.579396801757812
5.27870820328735,0.36391865234375,9.87368764648437,-0.627280834960937
5.28105696137112,0.36391865234375,9.91199487304687,-0.622492431640625
5.28340571945489,0.397437475585937,9.85453403320312,-0.617704028320312
5.28575447753866,0.349553442382812,9.86889924316406,-0.679953271484375
5.28810497368666,0.330399829101562,9.87368764648437,-0.636857641601562
5.29045546983466,0.301669409179687,9.87847604980469,-0.612915625
5.29280596598267,0.311246215820312,9.89762966308594,-0.6512228515625
5.29515814485635,0.32561142578125,9.94072529296875,-0.59376201171875
5.29751032373004,0.3064578125,9.90241806640625,-0.627280834960937
5.29986250260373,0.32561142578125,9.92636008300781,-0.627280834960937
5.30221614588714,0.3064578125,9.95030209960937,-0.718260498046875
5.30456978917056,0.316034619140625,9.95509050292969,-0.718260498046875
5.30692343245397,0.335188232421875,9.93593688964844,-0.684741674804688
5.30933041937887,0.330399829101562,9.94072529296875,-0.718260498046875
5.31173740630377,0.330399829101562,9.98860932617187,-0.665588061523437
5.31414439322867,0.3447650390625,10.0029745361328,-0.665588061523437
5.31655830479554,0.32561142578125,9.96945571289062,-0.63206923828125
5.3189722163624,0.335188232421875,10.0125513427734,-0.588973608398437
5.32138612792926,0.335188232421875,9.9981861328125,-0.588973608398437
5.32379720744678,0.330399829101562,9.99339772949219,-0.679953271484375
5.32620828696431,0.349553442382812,10.036493359375,-0.646434448242187
5.32861936648183,0.339976635742188,9.98382092285156,-0.6512228515625
5.33101424714228,0.330399829101562,10.0029745361328,-0.67037646484375
5.33340912780273,0.378283862304687,9.96945571289062,-0.699106884765625
5.33580400846319,0.339976635742188,9.99339772949219,-0.636857641601562
5.33818105495841,0.36391865234375,10.0269165527344,-0.636857641601562
5.34055810145363,0.378283862304687,9.99339772949219,-0.617704028320312
5.34293514794885,0.378283862304687,10.0077629394531,-0.6512228515625
5.34529922780997,0.354341845703125,10.0029745361328,-0.603338818359375
5.34766330767109,0.330399829101562,10.0221281494141,-0.5746083984375
5.35002738753221,0.330399829101562,10.0269165527344,-0.55545478515625
5.35244562071365,0.36391865234375,10.0508585693359,-0.565031591796875
5.35486385389509,0.335188232421875,10.036493359375,-0.565031591796875
5.35728208707653,0.301669409179687,10.0173397460938,-0.646434448242187
5.35969775471977,0.36391865234375,10.0077629394531,-0.63206923828125
5.362113422363,0.320823022460937,10.0221281494141,-0.59376201171875
5.36452909000624,0.335188232421875,10.0460701660156,-0.617704028320312
5.36694375005399,0.301669409179687,10.0269165527344,-0.646434448242187
5.36935841010174,0.32561142578125,9.9981861328125,-0.641646044921875
5.37177307014949,0.296881005859375,9.9981861328125,-0.732625708007812
5.37418649256704,0.316034619140625,10.0412817626953,-0.665588061523437
5.37659991498459,0.2681505859375,10.0317049560547,-0.751779321289062
5.37901333740214,0.3064578125,10.0317049560547,-0.70868369140625
5.38128772325283,0.258573779296875,10.0412817626953,-0.751779321289062
5.38356210910351,0.277727392578125,10.0173397460938,-0.751779321289062
5.38583649495419,0.2681505859375,10.036493359375,-0.699106884765625
5.38817194894725,0.282515795898438,10.036493359375,-0.78529814453125
5.3905074029403,0.2681505859375,10.036493359375,-0.775721337890625
5.39284285693336,0.301669409179687,10.0412817626953,-0.7278373046875
5.3951772062172,0.220266552734375,10.0221281494141,-0.780509741210937
5.39751155550104,0.196324536132812,10.0556469726563,-0.809240161132812
5.39984590478488,0.234631762695312,10.0652237792969,-0.770932934570312
5.40225346988906,0.225054956054687,10.0460701660156,-0.74699091796875
5.40466103499323,0.205901342773437,10.036493359375,-0.818816967773437
5.4070686000974,0.158017309570312,10.0652237792969,-0.799663354492188
5.40946285118246,0.1915361328125,10.0556469726563,-0.794874951171875
5.41185710226751,0.1915361328125,10.0412817626953,-0.799663354492188
5.41425135335257,0.220266552734375,10.0508585693359,-0.809240161132812
5.41664292550969,0.177170922851562,10.0077629394531,-0.70868369140625
5.4190344976668,0.263362182617187,9.98860932617187,-0.723048901367187
5.42142606982392,0.220266552734375,9.99339772949219,-0.713472094726562
5.42381699723278,0.220266552734375,9.98860932617187,-0.699106884765625
5.42620792464164,0.258573779296875,9.98860932617187,-0.63206923828125
5.4285988520505,0.277727392578125,10.0221281494141,-0.703895288085937
5.43097630791531,0.272938989257812,10.0173397460938,-0.703895288085937
5.43335376378012,0.311246215820312,10.0077629394531,-0.656011254882812
5.43573121964494,0.277727392578125,9.95030209960937,-0.675164868164063
5.43808985899497,0.32561142578125,9.95987890625,-0.684741674804688
5.44044849834501,0.368707055664062,9.9215716796875,-0.67037646484375
5.44280713769504,0.301669409179687,9.96466730957031,-0.59376201171875
5.44515915679228,0.349553442382812,9.95030209960937,-0.588973608398437
5.44751117588952,0.316034619140625,9.91678327636719,-0.622492431640625
5.44986319498676,0.335188232421875,9.9215716796875,-0.6512228515625
5.4534619979924,0.373495458984375,9.89284125976562,-0.617704028320312
5.45706080099803,0.3064578125,9.86889924316406,-0.565031591796875
5.46065960400367,0.32561142578125,9.89284125976562,-0.588973608398437
5.46306842800539,0.316034619140625,9.93114848632812,-0.560243188476563
5.46547725200712,0.32561142578125,9.91199487304687,-0.612915625
5.46788607600885,0.3064578125,9.89284125976562,-0.512359155273437
5.47029367019287,0.296881005859375,9.89284125976562,-0.569819995117188
5.47270126437688,0.320823022460937,9.86889924316406,-0.565031591796875
5.4751088585609,0.301669409179687,9.87368764648437,-0.493205541992187
5.47745397607394,0.296881005859375,9.89284125976562,-0.526724365234375
5.47979909358697,0.28730419921875,9.90241806640625,-0.565031591796875
5.48214421110001,0.2681505859375,9.87847604980469,-0.521935961914062
5.48448622314429,0.263362182617187,9.91199487304687,-0.560243188476563
5.48682823518858,0.277727392578125,9.95987890625,-0.565031591796875
5.48917024723286,0.2681505859375,9.94551369628906,-0.569819995117188
5.49157307655144,0.234631762695312,9.92636008300781,-0.612915625
5.49397590587001,0.282515795898438,9.95509050292969,-0.545877978515625
5.49637873518859,0.282515795898438,9.92636008300781,-0.507570751953125
5.49878275482832,0.320823022460937,9.96945571289062,-0.5746083984375
5.50118677446806,0.28730419921875,9.96466730957031,-0.59376201171875
5.50359079410779,0.330399829101562,10.0173397460938,-0.603338818359375
5.50599598909477,0.311246215820312,9.98860932617187,-0.646434448242187
5.50840118408175,0.272938989257812,9.95987890625,-0.742202514648437
5.51080637906873,0.330399829101562,9.97424411621094,-0.665588061523437
5.51308515272324,0.296881005859375,9.98382092285156,-0.675164868164063
5.51536392637775,0.282515795898438,10.036493359375,-0.699106884765625
5.51764270003227,0.311246215820312,10.0317049560547,-0.636857641601562
5.51991808219374,0.282515795898438,10.0556469726563,-0.636857641601562
5.5221934643552,0.316034619140625,10.0843773925781,-0.622492431640625
5.52446884651667,0.2681505859375,10.0412817626953,-0.646434448242187
5.52678643332226,0.3064578125,10.0987426025391,-0.617704028320312
5.52910402012785,0.296881005859375,10.0748005859375,-0.646434448242187
5.53142160693343,0.3064578125,10.1035310058594,-0.617704028320312
5.5337384172633,0.3447650390625,10.0748005859375,-0.656011254882812
5.53605522759317,0.335188232421875,10.0700121826172,-0.617704028320312
5.53837203792304,0.320823022460937,10.0987426025391,-0.5746083984375
5.54068755821384,0.320823022460937,10.0843773925781,-0.608127221679687
5.54300307850464,0.36391865234375,10.1322614257812,-0.579396801757812
5.54531859879543,0.36391865234375,10.036493359375,-0.636857641601562
5.54763258208539,0.373495458984375,10.036493359375,-0.627280834960937
5.54994656537535,0.416591088867187,9.99339772949219,-0.665588061523437
5.55226054866532,0.430956298828125,10.0173397460938,-0.675164868164063
5.55454127038841,0.426167895507812,10.036493359375,-0.598550415039062
5.5568219921115,0.426167895507812,10.0077629394531,-0.660799658203125
5.5591027138346,0.4213794921875,10.0269165527344,-0.6512228515625
5.56140222355683,0.4213794921875,10.0029745361328,-0.665588061523437
5.56370173327906,0.445321508789062,10.0221281494141,-0.665588061523437
5.5660012430013,0.397437475585937,10.0125513427734,-0.627280834960937
5.56826791281466,0.454898315429687,10.0077629394531,-0.689530078125
5.57053458262803,0.4213794921875,10.0077629394531,-0.718260498046875
5.57280125244139,0.454898315429687,9.99339772949219,-0.742202514648437
5.57506553130426,0.387860668945312,9.97903251953125,-0.751779321289062
5.57732981016713,0.483628735351562,10.0269165527344,-0.675164868164063
5.57959408903,0.416591088867187,10.0029745361328,-0.67037646484375
5.58185663015415,0.464475122070312,9.96945571289062,-0.679953271484375
5.58411917127831,0.454898315429687,10.0269165527344,-0.684741674804688
5.58638171240247,0.450109912109375,9.98382092285156,-0.579396801757812
5.58864262787556,0.416591088867187,10.0269165527344,-0.646434448242187
5.59090354334865,0.416591088867187,10.036493359375,-0.579396801757812
5.59316445882175,0.435744702148437,10.0221281494141,-0.617704028320312
5.5954199281143,0.426167895507812,10.0269165527344,-0.656011254882812
5.59767539740685,0.359130249023437,10.0317049560547,-0.6512228515625
5.5999308666994,0.397437475585937,10.036493359375,-0.703895288085937
5.60218286865253,0.383072265625,10.0317049560547,-0.588973608398437
5.60443487060567,0.392649072265625,9.97424411621094,-0.627280834960937
5.60668687255881,0.411802685546875,10.0077629394531,-0.67037646484375
5.60901029041907,0.378283862304687,9.95509050292969,-0.7278373046875
5.61133370827934,0.36391865234375,9.96945571289062,-0.694318481445312
5.6136571261396,0.378283862304687,9.98382092285156,-0.675164868164063
5.61598374477839,0.383072265625,10.0269165527344,-0.675164868164063
5.61831036341718,0.4213794921875,9.9981861328125,-0.718260498046875
5.62063698205597,0.368707055664062,9.99339772949219,-0.703895288085937
5.6229650071075,0.349553442382812,10.0221281494141,-0.656011254882812
5.62529303215904,0.416591088867187,10.0173397460938,-0.67037646484375
5.62762105721058,0.383072265625,9.98860932617187,-0.689530078125
5.63003008059382,0.397437475585937,10.0173397460938,-0.6512228515625
5.63243910397706,0.426167895507812,10.0221281494141,-0.713472094726562
5.6348481273603,0.44053310546875,9.98382092285156,-0.656011254882812
5.63725994414634,0.383072265625,9.96466730957031,-0.732625708007812
5.63967176093237,0.435744702148437,10.0269165527344,-0.703895288085937
5.64208357771841,0.426167895507812,10.036493359375,-0.689530078125
5.64446383730319,0.40222587890625,9.97903251953125,-0.742202514648437
5.64684409688798,0.411802685546875,9.97903251953125,-0.684741674804688
5.64922435647277,0.4213794921875,9.95030209960937,-0.718260498046875
5.65147459699648,0.392649072265625,10.0221281494141,-0.780509741210937
5.65372483752019,0.407014282226562,9.96945571289062,-0.742202514648437
5.65597507804389,0.392649072265625,9.97424411621094,-0.761356127929687
5.65929814710856,0.40222587890625,10.0221281494141,-0.7278373046875
5.66262121617322,0.416591088867187,10.0173397460938,-0.699106884765625
5.66594428523788,0.411802685546875,9.95030209960937,-0.723048901367187
5.66808697621009,0.397437475585937,10.0173397460938,-0.689530078125
5.67022966718229,0.387860668945312,9.94072529296875,-0.703895288085937
5.67237235815449,0.426167895507812,9.99339772949219,-0.694318481445312
5.67442880455207,0.411802685546875,9.96945571289062,-0.684741674804688
5.67648525094966,0.4213794921875,9.97424411621094,-0.656011254882812
5.67854169734724,0.407014282226562,9.99339772949219,-0.63206923828125
5.68270515964111,0.354341845703125,9.92636008300781,-0.67037646484375
5.68686862193498,0.378283862304687,9.93593688964844,-0.588973608398437
5.69103208422885,0.335188232421875,9.90720646972656,-0.636857641601562
5.69312563440247,0.383072265625,9.89762966308594,-0.627280834960937
5.6952191845761,0.411802685546875,9.88805285644531,-0.627280834960937
5.69731273474972,0.368707055664062,9.9215716796875,-0.622492431640625
5.69940774523151,0.407014282226562,9.88805285644531,-0.584185205078125
5.7015027557133,0.368707055664062,9.9215716796875,-0.689530078125
5.70359776619509,0.36391865234375,9.89762966308594,-0.622492431640625
5.70569396474111,0.387860668945312,9.90241806640625,-0.665588061523437
5.70779016328712,0.36391865234375,9.883264453125,-0.612915625
5.70988636183314,0.359130249023437,9.94072529296875,-0.684741674804688
5.71198389384267,0.354341845703125,9.95509050292969,-0.608127221679687
5.71408142585221,0.373495458984375,9.91199487304687,-0.584185205078125
5.71617895786174,0.349553442382812,9.90720646972656,-0.59376201171875
5.71834397264038,0.368707055664062,9.95030209960937,-0.67037646484375
5.72050898741902,0.354341845703125,9.99339772949219,-0.588973608398437
5.72267400219766,0.354341845703125,10.0173397460938,-0.536301171875
5.72484019430919,0.36391865234375,10.0412817626953,-0.55545478515625
5.72700638642073,0.36391865234375,9.99339772949219,-0.598550415039062
5.72917257853226,0.335188232421875,10.0077629394531,-0.63206923828125
5.7313384002011,0.335188232421875,10.0269165527344,-0.665588061523437
5.73350422186994,0.349553442382812,10.0508585693359,-0.684741674804688
5.73567004353878,0.354341845703125,10.0412817626953,-0.737414111328125
5.73783547371454,0.32561142578125,10.0125513427734,-0.703895288085937
5.74000090389031,0.330399829101562,10.0460701660156,-0.814028564453125
5.74216633406607,0.354341845703125,10.0508585693359,-0.7278373046875
5.74433188104959,0.32561142578125,10.0939541992188,-0.761356127929687
5.74649742803311,0.335188232421875,10.0843773925781,-0.718260498046875
5.74866297501663,0.311246215820312,10.1035310058594,-0.646434448242187
5.75086242273798,0.320823022460937,10.1131078125,-0.646434448242187
5.75306187045933,0.3447650390625,10.0987426025391,-0.641646044921875
5.75526131818069,0.3447650390625,10.0891657958984,-0.588973608398437
5.75741606490377,0.3447650390625,10.1562034423828,-0.550666381835937
5.75957081162684,0.3447650390625,10.0891657958984,-0.536301171875
5.76172555834992,0.320823022460937,10.1322614257812,-0.526724365234375
5.76384610685253,0.349553442382812,10.1274730224609,-0.488417138671875
5.76596665535513,0.387860668945312,10.1370498291016,-0.51714755859375
5.76808720385773,0.359130249023437,10.0700121826172,-0.512359155273437
5.7702047685279,0.368707055664062,10.0700121826172,-0.493205541992187
5.77232233319807,0.387860668945312,10.1178962158203,-0.493205541992187
5.77443989786823,0.378283862304687,10.036493359375,-0.488417138671875
5.7765439346521,0.359130249023437,10.0556469726563,-0.411802685546875
5.77864797143596,0.373495458984375,10.0412817626953,-0.454898315429687
5.78075200821982,0.392649072265625,9.98382092285156,-0.474051928710937
5.78285548673545,0.387860668945312,10.0221281494141,-0.430956298828125
5.78495896525107,0.392649072265625,10.0077629394531,-0.435744702148437
5.7870624437667,0.40222587890625,9.99339772949219,-0.44053310546875
5.78922522566774,0.426167895507812,10.0125513427734,-0.378283862304687
5.79138800756879,0.4213794921875,9.96945571289062,-0.392649072265625
5.79355078946983,0.435744702148437,10.0269165527344,-0.435744702148437
5.79559620385785,0.464475122070312,9.9981861328125,-0.392649072265625
5.79764161824588,0.411802685546875,9.93593688964844,-0.387860668945312
5.7996870326339,0.4213794921875,9.91678327636719,-0.330399829101562
5.80173411888334,0.44053310546875,9.96466730957031,-0.411802685546875
5.80378120513277,0.392649072265625,9.91678327636719,-0.411802685546875
5.80582829138221,0.416591088867187,9.98860932617187,-0.411802685546875
5.80787626744286,0.435744702148437,9.94551369628906,-0.387860668945312
5.80992424350351,0.464475122070312,9.96466730957031,-0.383072265625
5.81197221956415,0.488417138671875,9.91678327636719,-0.40222587890625
5.81402117458805,0.445321508789062,9.94072529296875,-0.383072265625
5.81607012961194,0.45968671875,9.96466730957031,-0.3447650390625
5.81811908463584,0.47884033203125,9.98382092285156,-0.36391865234375
5.82025859575782,0.507570751953125,9.96945571289062,-0.392649072265625
5.8223981068798,0.507570751953125,9.98860932617187,-0.349553442382812
5.82453761800178,0.512359155273437,10.036493359375,-0.392649072265625
5.82664423697967,0.502782348632812,10.0125513427734,-0.354341845703125
5.82875085595756,0.483628735351562,10.0556469726563,-0.397437475585937
5.83085747493544,0.507570751953125,10.0412817626953,-0.44053310546875
5.83298042149575,0.51714755859375,10.0460701660156,-0.373495458984375
5.83510336805606,0.488417138671875,10.0508585693359,-0.301669409179687
5.83722631461637,0.474051928710937,10.0077629394531,-0.335188232421875
5.83934946484425,0.502782348632812,10.0508585693359,-0.3447650390625
5.84147261507212,0.464475122070312,10.0460701660156,-0.277727392578125
5.84359576529999,0.464475122070312,10.0269165527344,-0.397437475585937
5.84571511587507,0.450109912109375,10.0748005859375,-0.392649072265625
5.84783446645015,0.435744702148437,10.0604353759766,-0.430956298828125
5.84995381702523,0.469263525390625,10.0795889892578,-0.28730419921875
5.85216966831646,0.474051928710937,10.0652237792969,-0.349553442382812
5.85438551960768,0.450109912109375,10.1083194091797,-0.430956298828125
5.85660137089891,0.469263525390625,10.1083194091797,-0.335188232421875
5.8630554095925,0.45968671875,10.2998555419922,-0.282515795898438
5.86950944828609,0.40222587890625,10.342951171875,-0.258573779296875
5.87596348697969,0.383072265625,10.2854903320312,-0.17238251953125
5.87806792592647,0.588973608398437,10.4578728515625,-0.167594116210937
5.88017236487325,0.512359155273437,10.4578728515625,-0.119710083007812
5.88227680382003,0.450109912109375,10.3190091552734,-0.119710083007812
5.88437141478648,0.51714755859375,10.2423947021484,-0.201112939453125
5.88646602575293,0.608127221679687,10.3621047851562,-0.138863696289063
5.88856063671938,0.5746083984375,10.3333743652344,-0.0718260498046875
5.89065199403276,0.641646044921875,10.2807019287109,-0.076614453125
5.89274335134614,0.742202514648437,10.4052004150391,0.0814028564453125
5.89483470865952,0.86191259765625,10.3621047851562,0.105344873046875
5.89692395214911,0.857124194335937,10.3333743652344,0.129286889648437
5.8990131956387,0.67037646484375,10.1370498291016,-0.0335188232421875
5.90110243912829,0.818816967773437,10.189722265625,-0.0335188232421875
5.9031899715176,0.933738647460937,10.2759135253906,0.143652099609375
5.9052775039069,0.847547387695312,10.1753570556641,0.05746083984375
5.9073650362962,0.790086547851562,9.96466730957031,-0.067037646484375
5.9137329856126,1.03908352050781,10.0556469726563,0.15322890625
5.92010093492901,0.995987890625,10.0029745361328,-0.0239420166015625
5.92646888424541,1.06781394042969,10.0173397460938,0.05746083984375
5.92859382381788,1.00556469726562,10.0317049560547,0.105344873046875
5.93071876339036,1.04866032714844,10.0125513427734,0.105344873046875
5.93284370296283,1.00556469726562,10.0795889892578,0.186747729492187
5.93496064740725,1.01035310058594,10.0700121826172,0.21068974609375
5.93707759185168,1.00077629394531,10.0125513427734,0.339976635742188
5.9391945362961,0.967257470703125,9.95030209960937,0.177170922851562
5.94130763275875,1.01035310058594,9.9981861328125,0.3064578125
5.94342072922139,0.90021982421875,9.9215716796875,0.282515795898438
5.94553382568404,0.895431420898437,9.83538041992187,0.282515795898438
5.94771150222486,0.885854614257812,9.73482395019531,0.2681505859375
5.94988917876568,0.952892260742187,9.80186159667969,0.215478149414062
5.9520668553065,0.943315454101562,9.76355437011719,0.335188232421875
5.95426093766324,0.905008227539062,9.67736311035156,0.40222587890625
5.95645502001999,0.967257470703125,9.71088193359375,0.373495458984375
5.95864910237674,0.933738647460937,9.74440075683594,0.383072265625
5.96084342008506,0.995987890625,9.78270798339844,0.45968671875
5.96303773779338,0.914585034179687,9.7683427734375,0.536301171875
5.9652320555017,0.962469067382812,9.82580361328125,0.55545478515625
5.96728090847481,0.933738647460937,9.7683427734375,0.51714755859375
5.96932976144793,0.7278373046875,9.68693991699219,0.378283862304687
5.97137861442104,0.770932934570312,9.68693991699219,0.416591088867187
5.97342535953825,0.967257470703125,9.76355437011719,0.502782348632812
5.97547210465545,1.02471831054687,9.74918916015625,0.675164868164063
5.97751884977265,1.06781394042969,9.75876596679687,0.761356127929687
5.97956384738552,1.04387192382812,9.72045874023437,0.775721337890625
5.98160884499839,0.981622680664062,9.77791958007812,0.7278373046875
5.98365384261126,0.981622680664062,9.71567033691406,0.70868369140625
5.98574128304097,1.09175595703125,9.65820949707031,0.737414111328125
5.98782872347067,1.11569797363281,9.70609353027344,0.790086547851562
5.98991616390038,1.10133276367187,9.67257470703125,0.86191259765625
5.99200317572763,1.15400520019531,9.51455739746094,0.857124194335937
5.99409018755489,1.07260234375,9.53371101074219,0.962469067382812
5.99617719938215,1.07739074707031,9.54807622070313,1.01035310058594
5.99826052653058,1.02950671386719,9.50976899414063,0.97683427734375
6.00034385367902,0.962469067382812,9.50976899414063,1.00077629394531
6.00242718082745,0.972045874023437,9.51934580078125,0.852335791015625
6.00446564295851,1.0342951171875,9.48582697753906,0.986411083984375
6.00650410508956,0.9576806640625,9.29907924804687,1.00556469726562
6.00854256722062,0.972045874023437,9.26077202148437,0.9193734375
6.0106505126145,0.852335791015625,9.28950244140625,0.967257470703125
6.01275845800838,0.799663354492188,9.14106193847656,1.04387192382812
6.01486640340227,0.794874951171875,8.95431420898437,1.08217915039062
6.01705330539338,0.689530078125,8.81545051269531,1.18273562011719
6.0192402073845,0.636857641601562,8.82502731933594,1.21625444335937
6.02142710937562,0.622492431640625,8.73404765625,1.35511813964844
6.02361713465774,0.430956298828125,8.70052883300781,1.38384855957031
6.02580715993986,0.493205541992187,8.60476076660156,1.48440502929687
6.02799718522198,0.368707055664062,8.51378110351562,1.41257897949219
6.03015376502882,0.359130249023437,8.38449421386719,1.37427175292969
6.03231034483567,0.186747729492187,8.38449421386719,1.55144267578125
6.03446692464252,0.148440502929687,8.37491740722656,1.5322890625
6.03662614469459,0.167594116210937,8.17859287109375,1.59453830566406
6.03878536474667,0.09576806640625,8.16901606445312,1.61369191894531
6.04094458479875,0.067037646484375,8.07803640136719,1.43173259277344
6.04306759771106,0.0335188232421875,7.94396110839844,1.44609780273437
6.04519061062337,-0.0047884033203125,7.83382783203125,1.47961662597656
6.04731362353567,-0.0718260498046875,7.82903942871094,1.41257897949219
6.04943792024792,-0.086191259765625,7.71411774902344,1.29286889648437
6.05156221696016,-0.17238251953125,7.52258161621094,1.11569797363281
6.0536865136724,-0.225054956054687,7.47948598632812,0.890643017578125
6.05581235340763,-0.339976635742188,7.44117875976562,0.584185205078125
6.05793819314285,-0.411802685546875,7.37892951660156,0.296881005859375
6.06006403287807,-0.44053310546875,7.15387456054687,0.162805712890625
6.06537607071986,-1.00077629394531,6.62236179199219,-1.45088620605469
6.07068810856164,-0.995987890625,6.69418784179687,-1.40779057617187
6.07600014640343,-0.943315454101562,6.78516750488281,-1.36948334960938
6.07812703035525,-0.857124194335937,6.82347473144531,-1.23540805664062
6.08025391430707,-0.857124194335937,6.86657036132813,-0.948103857421875
6.0823807982589,-0.799663354492188,7.02937607421875,-0.852335791015625
6.08450400449806,-0.6512228515625,7.13950935058594,-0.74699091796875
6.08662721073722,-0.608127221679687,7.26400783691406,-0.445321508789062
6.08875041697638,-0.531512768554687,7.32625708007812,0.0
6.09298340572423,-0.167594116210937,7.73327136230469,1.7238251953125
6.09721639447207,-0.162805712890625,7.88171186523437,1.84832368164062
6.10144938321992,-0.0622492431640625,7.90086547851562,2.08295544433594
6.10357416593477,-0.0239420166015625,7.92480749511719,2.13083947753906
6.10569894864962,0.100556469726563,8.02057556152344,2.00634099121094
6.10782373136448,0.15322890625,8.13070883789062,1.9536685546875
6.10994788115833,0.196324536132812,8.17380446777344,1.78128603515625
6.11207203095218,0.263362182617187,8.18816967773437,1.60411511230469
6.11419618074603,0.397437475585937,8.18338127441406,1.27371528320312
6.11632026272306,0.426167895507812,8.02057556152344,1.00077629394531
6.11844434470008,0.454898315429687,8.01578715820312,0.90021982421875
6.1205684266771,0.502782348632812,7.95832631835937,0.59376201171875
6.12269197338935,0.679953271484375,7.96311472167969,0.335188232421875
6.12481552010161,0.737414111328125,7.967903125,0.40222587890625
6.12693906681386,0.78529814453125,7.96311472167969,0.330399829101562
6.12915177026438,0.93852705078125,8.044517578125,0.397437475585937
6.1313644737149,1.05823713378906,8.02536396484375,0.545877978515625
6.13357717716542,1.14442839355469,8.0828248046875,0.617704028320312
6.13575536450264,1.14442839355469,8.14028564453125,0.770932934570312
6.13793355183986,1.24977326660156,8.16422766113281,0.885854614257812
6.14011173917709,1.22583125,8.31745656738281,1.04866032714844
6.1422875586758,1.27371528320312,8.49941589355469,1.11569797363281
6.1444633781745,1.21146604003906,8.61433757324219,1.27371528320312
6.14663919767321,1.28329208984375,8.78193168945312,1.36948334960938
6.14881330428129,1.24977326660156,8.94473740234375,1.52271225585937
6.15098741088936,1.23061965332031,9.08360109863281,1.54186586914062
6.15316151749744,1.18273562011719,9.16021555175781,1.48919343261719
6.15530808634512,1.02950671386719,9.10275471191406,1.50355864257812
6.15745465519281,1.05344873046875,9.05008227539062,1.4939818359375
6.1596012240405,1.01992990722656,9.00698664550781,1.44130939941406
6.16171753051837,1.00556469726562,8.84418093261719,1.37427175292969
6.16383383699624,0.948103857421875,8.70052883300781,1.48440502929687
6.16595014347411,1.01514150390625,8.55687673339844,1.50834704589844
6.17240595423798,0.0718260498046875,6.59363137207031,1.90099611816406
6.17886176500186,0.086191259765625,6.66066901855469,2.03507141113281
6.18531757576574,0.076614453125,6.8569935546875,2.1068974609375
6.18748995874099,0.0814028564453125,7.07247170410156,1.94888015136719
6.18966234171624,0.177170922851562,7.18260498046875,2.01591779785156
6.19183472469149,0.239420166015625,7.33583388671875,1.99197578125
6.19397894501484,0.368707055664062,7.40287153320312,1.86747729492187
6.1961231653382,0.45968671875,7.41244833984375,1.93451494140625
6.19826738566155,0.493205541992187,7.4699091796875,1.78607443847656
6.20038259448315,0.569819995117188,7.48906279296875,1.608903515625
6.20249780330475,0.560243188476563,7.58004245605469,1.42215578613281
6.20461301212634,0.665588061523437,7.69017573242187,1.33117612304687
6.20672744707645,0.665588061523437,7.81946262207031,1.16837041015625
6.20884188202655,0.679953271484375,7.9295958984375,1.02471831054687
6.21095631697665,0.699106884765625,8.03494077148437,0.986411083984375
6.21313822029697,0.660799658203125,8.13549724121094,0.837970581054687
6.21532012361729,0.703895288085937,8.2360537109375,0.612915625
6.21750202693761,0.63206923828125,8.40843623046875,0.6512228515625
6.21968831133432,0.857124194335937,8.59039555664062,0.780509741210937
6.22187459573104,0.876277807617187,8.76756647949219,0.742202514648437
6.22406088012775,0.78529814453125,8.95910261230469,0.847547387695312
6.22621454880179,0.905008227539062,9.17458076171875,0.952892260742187
6.22836821747582,0.948103857421875,9.39963571777344,1.09654436035156
6.23052188614986,0.895431420898437,9.69651672363281,1.07739074707031
6.23264211493675,0.837970581054687,9.98382092285156,1.01514150390625
6.23476234372364,0.76614453125,10.3142207519531,1.03908352050781
6.23688257251052,0.646434448242187,10.6446205810547,1.16358200683594
6.23896485549665,0.464475122070312,10.9702320068359,1.28808049316406
6.24104713848277,0.368707055664062,11.4251303222656,1.35990654296875
6.24312942146889,0.316034619140625,11.8704518310547,1.77649763183594
6.24531444333303,0.234631762695312,12.3492921630859,2.07816704101562
6.24749946519717,0.124498486328125,12.8281324951172,2.44208569335937
6.2496844870613,0.129286889648437,13.3931640869141,2.681505859375
6.25187057408385,0.110133276367187,13.9677724853516,2.92092602539062
6.2540566611064,0.220266552734375,14.4849200439453,3.08373173828125
6.25624274812895,0.272938989257812,15.0020676025391,3.2561142578125
6.2584284731181,0.359130249023437,15.5814644042969,3.39976635742187
6.26061419810725,0.502782348632812,16.3667625488281,3.36624753417969
6.2627999230964,0.521935961914062,17.0945998535156,3.52905324707031
6.26498542385593,0.761356127929687,17.7937067382812,3.67270534667969
6.26717092461547,0.780509741210937,18.5885816894531,3.73016618652344
6.26935642537501,0.866701000976562,19.3595146240234,3.62482131347656
6.27154344599133,0.761356127929687,20.0155258789062,3.49553442382812
6.27373046660766,0.74699091796875,20.7720936035156,3.28484467773437
6.27591748722398,0.63206923828125,21.6148525878906,2.98317526855469
6.27810468931816,0.531512768554687,22.3426898925781,2.81558115234375
6.28029189141235,0.320823022460937,23.1854488769531,2.61925661621094
6.28247909350654,0.1915361328125,24.1191875244141,2.47081611328125
6.28465142027521,-0.05746083984375,25.0912333984375,2.45645090332031
6.28682374704387,-0.320823022460937,26.0824328857422,2.4516625
6.28899607381254,-0.55545478515625,27.2843221191406,2.51870014648437
6.29469919734773,2.27449157714844,33.2075770263672,3.81156904296875
6.30040232088292,2.9496564453125,33.0495597167969,2.99754047851562
6.30610544441811,3.42370837402344,32.3504528320312,2.14999309082031
6.30845481035777,3.67749375,32.0631486328125,1.52271225585937
6.31080417629744,3.90254870605469,32.1110326660156,1.00556469726562
6.3131535422371,3.84987626953125,32.0727254394531,0.703895288085937
6.31550442559213,3.55299526367187,32.3217224121094,0.814028564453125
6.31785530894715,3.38540114746094,32.3169340087891,0.995987890625
6.32020619230218,3.03105930175781,32.5707193847656,1.16358200683594
6.32252717060078,2.681505859375,32.6329686279297,1.63763393554687
6.32484814889938,2.34631762695312,32.3743948486328,1.82917006835937
6.32716912719798,2.09253225097656,32.1780703125,2.01591779785156
6.32945940003869,1.87226569824219,31.6609227539062,2.13083947753906
6.33174967287941,1.64242233886719,31.0767375488281,2.33195241699219
6.33403994572012,1.51313544921875,30.4207262939453,2.48039291992187
6.33632883840678,1.40779057617187,29.8125990722656,2.45645090332031
6.33861773109343,1.3407529296875,29.1470110107422,2.53785375976562
6.34090662378009,1.23540805664062,28.6825358886719,2.63362182617187
6.35341366531108,-0.215478149414062,8.17380446777344,6.55532414550781
6.36592070684208,-0.407014282226562,7.56088884277344,5.91367810058594
6.37842774837307,-0.435744702148437,6.88093557128906,5.36780012207031
6.38070669542165,-0.531512768554687,6.38773002929687,4.85065256347656
6.38298564247023,-0.656011254882812,5.72693037109375,4.41011945800781
6.38526458951881,-0.814028564453125,5.15232197265625,4.03662399902344
6.38754411414988,-1.04866032714844,4.290409375,3.72537778320312
6.38982363878096,-1.16358200683594,3.53384165039062,3.28484467773437
6.39210316341203,-1.4939818359375,2.91613762207031,2.87783039550781
6.39431952984,-1.60411511230469,2.17872351074219,2.99754047851562
6.39653589626796,-1.66157595214844,1.35511813964844,3.49074602050781
6.39875226269592,-1.61848032226562,0.818816967773437,3.36624753417969
6.40096708582961,-1.69988317871094,0.5746083984375,3.1028853515625
6.4031819089633,-1.77170922851562,0.253785375976562,3.46201560058594
6.40539673209699,-1.77649763183594,0.612915625,3.66312854003906
6.40765616069942,-1.91057292480469,1.00077629394531,3.55778366699219
6.40991558930185,-1.93930334472656,0.909796630859375,3.43328518066406
6.41217501790427,-1.71903679199219,0.220266552734375,3.65834013671875
6.41443626475756,-1.63763393554687,-0.8810662109375,4.1754876953125
6.41669751161084,-1.53707746582031,-1.58496149902344,4.49152231445312
6.41895875846413,-1.42215578613281,-1.94409174804687,4.74530769042969
6.42122010481829,-1.20188923339844,-2.06380183105469,4.70221206054687
6.42348145117246,-1.0342951171875,-1.79086284179687,4.63996281738281
6.42574279752662,-0.8044517578125,-1.47482822265625,4.45800349121094
6.42793671408476,-0.679953271484375,-1.2641384765625,4.12760366210938
6.4301306306429,-0.40222587890625,-0.905008227539062,4.23773693847656
6.43232454720103,-0.205901342773437,-0.622492431640625,4.69742365722656
6.43451768131561,0.0143652099609375,-0.3447650390625,5.19541760253906
6.43671081543019,0.177170922851562,-0.148440502929687,5.49708701171875
6.43890394954477,0.3447650390625,-0.0239420166015625,5.96156213378906
6.44109119118971,0.469263525390625,-0.028730419921875,6.01902297363281
6.44327843283466,0.483628735351562,-0.0718260498046875,6.01902297363281
6.44546567447961,0.450109912109375,-0.076614453125,6.01902297363281
6.44765429372875,0.387860668945312,0.0047884033203125,6.08127221679687
6.4498429129779,0.330399829101562,0.0909796630859375,6.06211860351562
6.45203153222704,0.24899697265625,0.244208569335937,5.83706364746094
6.4542214643017,0.162805712890625,0.335188232421875,5.79875642089844
6.45641139637635,0.086191259765625,0.47884033203125,5.76044919433594
6.45860132845101,0.0909796630859375,0.627280834960937,5.7843912109375
6.46071116981385,0.0430956298828125,0.770932934570312,5.7077767578125
6.4628210111767,-0.0143652099609375,1.00556469726562,5.69341154785156
6.46493085253954,0.0526724365234375,1.11569797363281,5.73650717773437
6.46704861111159,0.0430956298828125,1.28329208984375,5.82748684082031
6.46916636968364,0.138863696289063,1.41257897949219,5.88973608398438
6.47128412825569,0.2681505859375,1.49877023925781,5.85142885742187
6.47344703678436,0.507570751953125,1.61369191894531,6.11000263671875
6.47560994531302,0.660799658203125,1.68072956542969,6.34463439941406
6.47777285384169,0.991199487304687,1.62326872558594,6.52659372558594
6.4799345600049,1.20667763671875,1.55623107910156,6.69897624511719
6.48209626616812,1.43652099609375,1.5705962890625,6.7037646484375
6.48425797233133,1.68551796875,1.455674609375,6.62236179199219
6.48642001307571,1.838746875,1.34554133300781,6.33505759277344
6.48858205382009,1.96803376464844,1.22104284667969,5.80833322753906
6.49074409456446,2.1068974609375,1.01035310058594,5.19541760253906
6.49290642475111,2.19787712402344,1.02950671386719,4.39096584472656
6.49506875493776,2.32237561035156,0.699106884765625,3.56736047363281
6.49723108512441,2.34152922363281,0.51714755859375,2.62883342285156
6.49939324739657,2.35589443359375,0.13407529296875,1.75255561523437
6.50155540966873,2.34152922363281,0.076614453125,1.0342951171875
6.50371757194088,2.3367408203125,-0.0335188232421875,0.397437475585937
6.50594143896563,2.20266552734375,-0.292092602539062,-0.2681505859375
6.50816530599037,2.14041628417969,-0.244208569335937,-0.814028564453125
6.51038917301511,1.95845695800781,-0.244208569335937,-1.31681091308594
6.51259029329504,1.80522805175781,-0.40222587890625,-1.80522805175781
6.51479141357497,1.59453830566406,-0.502782348632812,-2.11647426757812
6.5169925338549,1.36469494628906,-0.565031591796875,-2.37983645019531
6.5191884136292,1.15400520019531,-0.579396801757812,-2.31758720703125
6.5213842934035,0.93852705078125,-0.871489404296875,-2.46602770996094
6.52358017317781,0.775721337890625,-1.02471831054687,-2.55221896972656
6.52577534977287,0.656011254882812,-1.20188923339844,-2.53306535644531
6.52797052636793,0.36391865234375,-1.29765729980469,-2.44687409667969
6.53016570296299,0.1915361328125,-1.2641384765625,-2.37025964355469
6.53236072618346,0.0239420166015625,-1.10612116699219,-2.27449157714844
6.53455574940393,-0.0718260498046875,-1.15879360351562,-2.20266552734375
6.5367507726244,-0.181959326171875,-1.10133276367187,-2.38462485351562
6.53900778271557,-0.36391865234375,-1.17794721679687,-2.43250888671875
6.54126479280674,-0.474051928710937,-1.00556469726562,-2.46123930664062
6.54352180289791,-0.627280834960937,-0.7278373046875,-2.57137258300781
6.54574857253767,-0.770932934570312,-0.608127221679687,-2.77248552246094
6.54797534217743,-0.761356127929687,-0.36391865234375,-2.94007963867187
6.55020211181719,-0.857124194335937,-0.105344873046875,-3.1028853515625
6.55239704394612,-0.871489404296875,0.067037646484375,-3.04542451171875
6.55459197607505,-0.852335791015625,0.339976635742188,-2.89219560546875
6.55678690820397,-0.952892260742187,0.488417138671875,-2.90656081542969
6.55898427680204,-0.93852705078125,0.588973608398437,-2.86825358886719
6.56118164540011,-0.9576806640625,0.531512768554687,-2.76769711914062
6.56337901399817,-1.02471831054687,0.47884033203125,-2.77248552246094
6.56557752745301,-1.00077629394531,0.51714755859375,-2.63841022949219
6.56777604090785,-0.967257470703125,0.4979939453125,-2.528276953125
6.56997455436269,-0.948103857421875,0.646434448242187,-2.4516625
6.57223182074725,-0.972045874023437,0.699106884765625,-2.32716401367187
6.57448908713181,-0.952892260742187,0.78529814453125,-2.02070620117187
6.57674635351637,-0.93852705078125,0.780509741210937,-1.76692082519531
6.57896994959927,-0.948103857421875,0.8044517578125,-1.43652099609375
6.58119354568217,-0.9193734375,0.780509741210937,-1.19231242675781
6.58341714176507,-0.86191259765625,0.8810662109375,-1.06781394042969
6.58560396446472,-0.770932934570312,1.01514150390625,-1.10612116699219
6.58779078716436,-0.684741674804688,1.1109095703125,-1.33117612304687
6.58997760986401,-0.646434448242187,1.12048637695313,-1.28329208984375
6.59216157128978,-0.59376201171875,1.0342951171875,-0.871489404296875
6.59434553271555,-0.641646044921875,0.967257470703125,-0.689530078125
6.59652949414132,-0.646434448242187,0.799663354492188,-0.541089575195312
6.59871168261788,-0.598550415039062,0.699106884765625,-0.469263525390625
6.60089387109445,-0.59376201171875,0.55545478515625,-0.541089575195312
6.60307605957101,-0.569819995117188,0.63206923828125,-0.339976635742188
6.60532464360961,-0.51714755859375,0.656011254882812,-0.258573779296875
6.60757322764822,-0.565031591796875,0.588973608398437,-0.076614453125
6.60982181168683,-0.502782348632812,0.45968671875,0.13407529296875
6.61206981054752,-0.569819995117188,0.320823022460937,0.392649072265625
6.61431780940822,-0.598550415039062,0.220266552734375,0.622492431640625
6.61656580826892,-0.565031591796875,0.1149216796875,0.780509741210937
6.61878394330583,-0.45968671875,0.143652099609375,0.981622680664062
6.62100207834274,-0.373495458984375,0.0814028564453125,1.04387192382812
6.62322021337965,-0.354341845703125,0.047884033203125,1.20188923339844
6.6254070875116,-0.282515795898438,-0.0718260498046875,1.2641384765625
6.62759396164356,-0.15322890625,-0.119710083007812,1.27371528320312
6.62978083577551,-0.105344873046875,-0.158017309570312,1.31202250976562
6.6319671167,-0.0047884033203125,-0.28730419921875,1.31202250976562
6.63415339762449,0.100556469726563,-0.36391865234375,1.10612116699219
6.63633967854898,0.162805712890625,-0.464475122070312,0.842758984375
6.63866168744656,0.229843359375,-0.565031591796875,0.426167895507812
6.64098369634414,0.263362182617187,-0.526724365234375,0.129286889648437
6.64330570524172,0.316034619140625,-0.612915625,-0.32561142578125
6.64571610340794,0.301669409179687,-0.694318481445312,-0.579396801757812
6.64812650157416,0.392649072265625,-0.679953271484375,-0.833182177734375
6.65053689974039,0.416591088867187,-0.679953271484375,-1.06302553710937
6.65288724669132,0.488417138671875,-0.732625708007812,-1.11569797363281
6.65523759364225,0.512359155273437,-0.732625708007812,-1.05344873046875
6.65758794059317,0.579396801757812,-0.641646044921875,-0.952892260742187
6.65987241194734,0.622492431640625,-0.454898315429687,-0.909796630859375
6.66215688330151,0.679953271484375,-0.32561142578125,-0.794874951171875
6.66444135465568,0.656011254882812,-0.21068974609375,-0.579396801757812
6.66671487293912,0.699106884765625,-0.272938989257812,-0.4213794921875
6.66898839122256,0.790086547851562,-0.411802685546875,-0.119710083007812
6.671261909506,0.809240161132812,-0.454898315429687,0.0526724365234375
6.67352610460151,0.8044517578125,-0.407014282226562,0.181959326171875
6.67579029969701,0.8810662109375,-0.416591088867187,0.339976635742188
6.67805449479252,0.871489404296875,-0.330399829101562,0.378283862304687
6.68465811751389,0.387860668945312,0.435744702148437,0.244208569335937
6.69126174023527,0.3447650390625,0.44053310546875,0.158017309570312
6.69786536295664,0.296881005859375,0.454898315429687,-0.086191259765625
6.70000748122922,0.1149216796875,0.383072265625,-0.181959326171875
6.7021495995018,0.05746083984375,0.378283862304687,-0.277727392578125
6.70429171777437,-0.0430956298828125,0.502782348632812,-0.263362182617187
6.70971699777655,-1.45088620605469,9.270348828125,10.189722265625
6.71514227777872,-0.991199487304687,10.7116582275391,9.22246479492187
6.7205675577809,-0.857124194335937,11.5113215820312,6.52659372558594
6.72275001633125,-0.641646044921875,11.9757967041016,3.97916315917969
6.7249324748816,-0.272938989257812,13.0388222412109,2.26970317382813
6.72711493343195,0.1915361328125,14.3364795410156,1.85311208496094
6.7292973919823,0.47884033203125,15.5862528076172,2.4133552734375
6.73147985053265,0.474051928710937,16.3667625488281,3.08373173828125
6.733662309083,0.359130249023437,16.7833536376953,3.00232888183594
6.73592402436077,0.3064578125,17.4058460693359,2.69587106933594
6.73818573963854,0.229843359375,17.7075154785156,2.08295544433594
6.74044745491631,0.15322890625,17.7314574951172,1.05823713378906
6.74271213427831,0.565031591796875,17.9229936279297,0.186747729492187
6.74497681364032,0.742202514648437,18.6843497558594,0.0239420166015625
6.74724149300232,0.713472094726562,19.536685546875,-0.158017309570312
6.74949035712993,0.751779321289062,20.4608473876953,-0.320823022460937
6.75173922125753,0.569819995117188,21.068974609375,-0.0814028564453125
6.75398808538514,0.397437475585937,21.8734263671875,0.349553442382812
6.75622600597976,0.21068974609375,22.907721484375,1.27850368652344
6.75846392657438,-0.158017309570312,24.9188508789062,2.57616098632812
6.760701847169,-0.13407529296875,28.0073710205078,4.91290180664063
6.7629221847341,0.0335188232421875,33.2746146728516,9.64863269042969
