timestamp,accel_x (m/s2),accel_y (m/s2),accel_z (m/s2)
0.00377583756509618,-0.45968671875,8.99262143554687,-0.24899697265625
0.00755167513019236,-0.0383072265625,9.95509050292969,-0.723048901367187
0.0113275126952885,-0.0718260498046875,9.95509050292969,-0.689530078125
0.0188831895615825,-0.0430956298828125,9.94551369628906,-0.703895288085937
0.0264388664278764,-0.01915361328125,9.94551369628906,-0.7278373046875
0.0339945432941704,-0.05746083984375,9.93114848632812,-0.756567724609375
0.041552514973849,-0.0383072265625,9.95987890625,-0.751779321289062
0.0491104866535276,0.0047884033203125,9.95509050292969,-0.770932934570312
0.0566684583332062,-0.0239420166015625,9.99339772949219,-0.74699091796875
0.0642985429686102,-0.0335188232421875,9.96945571289062,-0.76614453125
0.0719286276040142,-0.0430956298828125,9.96945571289062,-0.742202514648437
0.0795587122394181,-0.028730419921875,9.96945571289062,-0.751779321289062
0.0871939104815738,-0.028730419921875,9.97424411621094,-0.7278373046875
0.0948291087237294,-0.047884033203125,9.98382092285156,-0.775721337890625
0.102464306965885,-0.047884033203125,9.99339772949219,-0.742202514648437
0.110101992729748,-0.0143652099609375,9.96466730957031,-0.770932934570312
0.117739678493611,-0.0383072265625,9.93593688964844,-0.780509741210937
0.125377364257474,-0.047884033203125,9.92636008300781,-0.76614453125
0.133018287543033,-0.0383072265625,9.93593688964844,-0.732625708007812
0.140659210828593,-0.0526724365234375,9.95030209960937,-0.713472094726562
0.148300134114152,-0.0622492431640625,9.9215716796875,-0.699106884765625
0.155943899956166,-0.047884033203125,9.94551369628906,-0.699106884765625
0.16358766579818,-0.0430956298828125,9.96466730957031,-0.737414111328125
0.171231431640194,-0.0526724365234375,9.93114848632812,-0.742202514648437
0.178939130533422,-0.028730419921875,9.9981861328125,-0.699106884765625
0.18664682942665,0.01915361328125,9.95030209960937,-0.694318481445312
0.194354528319877,-0.028730419921875,9.94072529296875,-0.665588061523437
0.202070870225233,-0.0335188232421875,9.97903251953125,-0.6512228515625
0.209787212130588,-0.0143652099609375,9.94072529296875,-0.732625708007812
0.217503554035943,-0.0239420166015625,9.98382092285156,-0.718260498046875
0.225223123154857,-0.0143652099609375,9.92636008300781,-0.694318481445312
0.232942692273771,0.0143652099609375,9.95987890625,-0.689530078125
0.240662261392686,-0.0047884033203125,9.94072529296875,-0.67037646484375
0.248385115884844,0.0,9.92636008300781,-0.6512228515625
0.256107970377002,-0.009576806640625,9.95987890625,-0.612915625
0.26383082486916,-0.009576806640625,9.95030209960937,-0.67037646484375
0.271556225042749,-0.01915361328125,9.97903251953125,-0.675164868164063
0.279281625216337,-0.0383072265625,9.97903251953125,-0.703895288085937
0.287007025389926,-0.0430956298828125,9.91678327636719,-0.641646044921875
0.294791223740617,-0.0383072265625,9.97903251953125,-0.718260498046875
0.302575422091309,-0.01915361328125,9.95987890625,-0.742202514648437
0.310359620442,0.009576806640625,10.0077629394531,-0.7278373046875
0.318151343857797,-0.0526724365234375,9.96466730957031,-0.751779321289062
0.325943067273594,0.0,9.97424411621094,-0.675164868164063
0.333734790689391,0.0143652099609375,9.97424411621094,-0.713472094726562
0.341529867186788,-0.0239420166015625,9.94072529296875,-0.675164868164063
0.349324943684185,0.0,9.95030209960937,-0.70868369140625
0.357120020181583,-0.0239420166015625,9.97903251953125,-0.665588061523437
0.364918798176367,-0.0047884033203125,9.96945571289062,-0.665588061523437
0.37271757617115,-0.028730419921875,9.98382092285156,-0.694318481445312
0.380516354165934,-0.0335188232421875,9.95509050292969,-0.780509741210937
0.388320504339542,-0.01915361328125,9.95030209960937,-0.751779321289062
0.396124654513149,-0.0143652099609375,9.95509050292969,-0.742202514648437
0.403928804686757,-0.01915361328125,9.94551369628906,-0.703895288085937
0.411790917859472,-0.028730419921875,9.97903251953125,-0.689530078125
0.419653031032188,-0.047884033203125,9.95987890625,-0.723048901367187
0.427515144204904,-0.047884033203125,9.94072529296875,-0.737414111328125
0.435379907334247,-0.0718260498046875,9.95509050292969,-0.737414111328125
0.44324467046359,-0.0718260498046875,9.95030209960937,-0.684741674804688
0.451109433592933,-0.0430956298828125,9.95987890625,-0.660799658203125
0.458977332464428,-0.0383072265625,9.9981861328125,-0.694318481445312
0.466845231335924,-0.0622492431640625,9.96466730957031,-0.751779321289062
0.474713130207419,-0.0239420166015625,9.95509050292969,-0.703895288085937
0.482584447590208,-0.0526724365234375,9.9215716796875,-0.703895288085937
0.490455764972997,-0.0814028564453125,10.0077629394531,-0.636857641601562
0.498327082355786,-0.067037646484375,9.95509050292969,-0.665588061523437
0.506201661891358,-0.05746083984375,9.95030209960937,-0.699106884765625
0.51407624142693,-0.0383072265625,9.96466730957031,-0.718260498046875
0.521950820962502,-0.028730419921875,9.96466730957031,-0.70868369140625
0.529891184243752,-0.0718260498046875,9.95509050292969,-0.684741674804688
0.537831547525002,-0.05746083984375,9.96945571289062,-0.679953271484375
0.545771910806252,-0.09576806640625,9.97903251953125,-0.775721337890625
0.553715893119602,-0.047884033203125,9.96945571289062,-0.622492431640625
0.561659875432952,-0.0622492431640625,9.95030209960937,-0.703895288085937
0.569603857746301,-0.05746083984375,9.94551369628906,-0.7278373046875
0.577549606769708,-0.05746083984375,9.94072529296875,-0.723048901367187
0.585495355793114,-0.076614453125,9.94551369628906,-0.713472094726562
0.59344110481652,-0.0909796630859375,9.92636008300781,-0.67037646484375
0.601388246418082,-0.110133276367187,9.95987890625,-0.703895288085937
0.609335388019645,-0.0335188232421875,9.96945571289062,-0.723048901367187
0.617282529621207,-0.0430956298828125,9.94072529296875,-0.684741674804688
0.625230935437154,-0.0622492431640625,9.96945571289062,-0.656011254882812
0.633179341253102,-0.0909796630859375,10.0029745361328,-0.660799658203125
0.641127747069049,-0.110133276367187,9.95509050292969,-0.751779321289062
0.649148264430134,-0.0622492431640625,9.96466730957031,-0.70868369140625
0.657168781791218,-0.0718260498046875,9.95509050292969,-0.7278373046875
0.665189299152303,-0.0622492431640625,9.96466730957031,-0.718260498046875
0.673214886500394,-0.09576806640625,9.96466730957031,-0.694318481445312
0.681240473848485,-0.086191259765625,9.97903251953125,-0.713472094726562
0.689266061196577,-0.119710083007812,9.96945571289062,-0.761356127929687
0.697294373696574,-0.119710083007812,9.97903251953125,-0.74699091796875
0.705322686196572,-0.0430956298828125,9.97903251953125,-0.703895288085937
0.713350998696569,-0.076614453125,9.9215716796875,-0.756567724609375
0.721381805879711,-0.1149216796875,9.95987890625,-0.7278373046875
0.729412613062853,-0.047884033203125,9.97903251953125,-0.761356127929687
0.737443420245995,-0.0526724365234375,9.97424411621094,-0.780509741210937
0.745476449542859,-0.076614453125,9.95987890625,-0.76614453125
0.753509478839722,-0.076614453125,10.0029745361328,-0.699106884765625
0.761542508136586,-0.076614453125,9.96466730957031,-0.775721337890625
0.769640189234678,-0.047884033203125,10.0125513427734,-0.70868369140625
0.777737870332771,-0.028730419921875,9.97903251953125,-0.8044517578125
0.785835551430864,-0.076614453125,10.0125513427734,-0.756567724609375
0.793937337780676,-0.05746083984375,9.97424411621094,-0.82360537109375
0.802039124130488,-0.047884033203125,9.99339772949219,-0.742202514648437
0.8101409104803,-0.0383072265625,9.97903251953125,-0.742202514648437
0.818244863822315,-0.0814028564453125,9.9981861328125,-0.723048901367187
0.82634881716433,-0.0526724365234375,9.99339772949219,-0.770932934570312
0.834452770506346,-0.0622492431640625,9.96945571289062,-0.675164868164063
0.842558587346616,-0.0622492431640625,10.0173397460938,-0.74699091796875
0.850664404186887,-0.0622492431640625,9.99339772949219,-0.718260498046875
0.858770221027157,-0.086191259765625,10.0077629394531,-0.694318481445312
0.866877859264984,-0.0335188232421875,9.98860932617187,-0.7278373046875
0.874985497502811,-0.0239420166015625,10.0077629394531,-0.699106884765625
0.883093135740637,-0.0430956298828125,9.97903251953125,-0.723048901367187
0.891269219073971,-0.0718260498046875,10.0029745361328,-0.689530078125
0.899445302407306,-0.086191259765625,9.98382092285156,-0.703895288085937
0.90762138574064,-0.05746083984375,9.99339772949219,-0.737414111328125
0.915804833548767,-0.047884033203125,9.99339772949219,-0.694318481445312
0.923988281356893,-0.047884033203125,9.96466730957031,-0.713472094726562
0.93217172916502,-0.0718260498046875,9.95987890625,-0.67037646484375
0.940366438583396,-0.0814028564453125,9.94551369628906,-0.718260498046875
0.948561148001772,-0.0383072265625,9.94551369628906,-0.718260498046875
0.956755857420148,-0.0526724365234375,9.91678327636719,-0.703895288085937
0.964955592880187,-0.0526724365234375,9.90720646972656,-0.775721337890625
0.973155328340226,-0.076614453125,9.92636008300781,-0.699106884765625
0.981355063800265,-0.05746083984375,9.89762966308594,-0.675164868164063
0.989556380532008,-0.0335188232421875,9.91678327636719,-0.742202514648437
0.997757697263751,-0.0383072265625,9.89762966308594,-0.723048901367187
1.00595901399549,-0.0909796630859375,9.90720646972656,-0.699106884765625
1.01421370279756,-0.076614453125,9.89762966308594,-0.699106884765625
1.02246839159962,-0.0526724365234375,9.883264453125,-0.6512228515625
1.03072308040169,-0.076614453125,9.90241806640625,-0.627280834960937
1.03898206618726,-0.105344873046875,9.91678327636719,-0.641646044921875
1.04724105197283,-0.0383072265625,9.89284125976562,-0.584185205078125
1.05550003775841,-0.05746083984375,9.91199487304687,-0.660799658203125
1.06376332204657,-0.09576806640625,9.90241806640625,-0.699106884765625
1.07202660633474,-0.0526724365234375,9.90720646972656,-0.713472094726562
1.08028989062291,-0.0718260498046875,9.93593688964844,-0.660799658203125
1.08855962347881,-0.076614453125,9.92636008300781,-0.723048901367187
1.09682935633471,-0.0718260498046875,9.9215716796875,-0.70868369140625
1.10509908919062,-0.05746083984375,9.9215716796875,-0.732625708007812
1.1133720705274,-0.086191259765625,9.95030209960937,-0.6512228515625
1.12164505186418,-0.067037646484375,9.9215716796875,-0.675164868164063
1.12991803320097,-0.076614453125,9.91678327636719,-0.689530078125
1.13824930761503,-0.0814028564453125,9.93114848632812,-0.694318481445312
1.1465805820291,-0.0814028564453125,9.94072529296875,-0.6512228515625
1.15491185644316,-0.067037646484375,9.93593688964844,-0.656011254882812
1.16324646842232,-0.0526724365234375,9.97903251953125,-0.67037646484375
1.17158108040148,-0.0239420166015625,9.95987890625,-0.636857641601562
1.17991569238063,-0.047884033203125,9.93114848632812,-0.646434448242187
1.18825226551428,-0.05746083984375,9.92636008300781,-0.675164868164063
1.19658883864793,-0.047884033203125,9.94072529296875,-0.665588061523437
1.20492541178157,-0.047884033203125,9.92636008300781,-0.723048901367187
1.21326443391699,-0.0143652099609375,9.94551369628906,-0.67037646484375
1.2216034560524,-0.0335188232421875,9.9215716796875,-0.689530078125
1.22994247818781,-0.0383072265625,9.94551369628906,-0.67037646484375
1.23835256347426,-0.0143652099609375,9.94072529296875,-0.612915625
1.24676264876071,-0.047884033203125,9.95030209960937,-0.675164868164063
1.25517273404716,-0.05746083984375,9.95030209960937,-0.617704028320312
1.26358649706799,0.0,9.95987890625,-0.660799658203125
1.27200026008882,0.009576806640625,9.94072529296875,-0.675164868164063
1.28041402310964,0.0047884033203125,9.94551369628906,-0.67037646484375
1.28883086403846,0.009576806640625,9.95030209960937,-0.6512228515625
1.29724770496728,0.01915361328125,9.94072529296875,-0.737414111328125
1.30566454589609,-0.0622492431640625,9.93593688964844,-0.660799658203125
1.31408335720251,0.0047884033203125,9.92636008300781,-0.6512228515625
1.32250216850893,-0.0143652099609375,9.97424411621094,-0.612915625
1.33092097981535,-0.0622492431640625,9.95509050292969,-0.627280834960937
1.33934189702453,-0.009576806640625,9.97424411621094,-0.617704028320312
1.34776281423372,-0.0239420166015625,9.95509050292969,-0.684741674804688
1.35618373144291,-0.028730419921875,9.96466730957031,-0.63206923828125
1.36460653808354,-0.01915361328125,9.93593688964844,-0.7278373046875
1.37302934472416,-0.0383072265625,9.95030209960937,-0.627280834960937
1.38145215136478,-0.01915361328125,9.95987890625,-0.646434448242187
1.38994094823977,0.0,9.94072529296875,-0.67037646484375
1.39842974511475,-0.0239420166015625,9.97424411621094,-0.660799658203125
1.40691854198974,-0.009576806640625,10.0556469726563,-0.598550415039062
1.41541060177705,0.0143652099609375,9.80186159667969,-0.775721337890625
1.42390266156436,0.009576806640625,9.91678327636719,-0.70868369140625
1.43239472135167,-0.0526724365234375,9.98860932617187,-0.598550415039062
1.44088881618673,-0.01915361328125,9.94072529296875,-0.675164868164063
1.4493829110218,-0.0335188232421875,9.96466730957031,-0.684741674804688
1.45787700585686,0.0,9.94551369628906,-0.713472094726562
1.46637299891241,-0.0383072265625,9.97903251953125,-0.689530078125
1.47486899196796,-0.0239420166015625,9.97424411621094,-0.660799658203125
1.48336498502351,-0.047884033203125,9.96945571289062,-0.732625708007812
1.49186280001917,-0.076614453125,9.97903251953125,-0.713472094726562
1.50036061501483,-0.0239420166015625,9.95030209960937,-0.646434448242187
1.50885843001049,-0.0430956298828125,9.96945571289062,-0.718260498046875
1.5174274180747,-0.0143652099609375,9.93114848632812,-0.67037646484375
1.52599640613892,-0.0430956298828125,9.95509050292969,-0.699106884765625
1.53456539420313,-0.0047884033203125,9.98860932617187,-0.699106884765625
1.54314082747135,-0.0430956298828125,9.95987890625,-0.70868369140625
1.55171626073957,-0.05746083984375,9.98382092285156,-0.694318481445312
1.56029169400779,-0.0622492431640625,9.96945571289062,-0.684741674804688
1.56886943749737,-0.067037646484375,9.96945571289062,-0.7278373046875
1.57744718098695,-0.110133276367187,9.95030209960937,-0.699106884765625
1.58602492447653,-0.086191259765625,9.96466730957031,-0.70868369140625
1.59460464583068,-0.0526724365234375,9.97424411621094,-0.675164868164063
1.60318436718482,-0.110133276367187,9.95509050292969,-0.656011254882812
1.61176408853896,-0.110133276367187,9.94551369628906,-0.694318481445312
1.6203460517551,-0.0718260498046875,9.9215716796875,-0.713472094726562
1.62892801497124,-0.09576806640625,9.92636008300781,-0.679953271484375
1.63750997818738,-0.067037646484375,9.94551369628906,-0.751779321289062
1.64615488172471,-0.067037646484375,9.89762966308594,-0.732625708007812
1.65479978526203,-0.076614453125,9.91678327636719,-0.7278373046875
1.66344468879936,-0.0718260498046875,9.91678327636719,-0.699106884765625
1.67210912217608,-0.119710083007812,9.95030209960937,-0.76614453125
1.68077355555279,-0.09576806640625,9.93114848632812,-0.756567724609375
1.68943798892951,-0.0718260498046875,9.95509050292969,-0.737414111328125
1.6981098001274,-0.0718260498046875,9.96945571289062,-0.723048901367187
1.70678161132529,-0.0718260498046875,9.91678327636719,-0.732625708007812
1.71545342252318,-0.0909796630859375,9.94551369628906,-0.742202514648437
1.72413000802665,-0.0526724365234375,9.95987890625,-0.718260498046875
1.73280659353012,-0.0814028564453125,9.89762966308594,-0.78529814453125
1.74148317903359,-0.0814028564453125,9.89284125976562,-0.723048901367187
1.75016328417682,-0.05746083984375,9.93593688964844,-0.723048901367187
1.75884338932004,-0.05746083984375,9.93593688964844,-0.74699091796875
1.76752349446326,-0.0909796630859375,9.94551369628906,-0.694318481445312
1.77624651583911,-0.067037646484375,9.91678327636719,-0.737414111328125
1.78496953721496,-0.0909796630859375,9.93114848632812,-0.732625708007812
1.79369255859081,-0.0430956298828125,9.91678327636719,-0.713472094726562
1.80242162966283,-0.086191259765625,9.94072529296875,-0.751779321289062
1.81115070073486,-0.0335188232421875,9.91199487304687,-0.756567724609375
1.81987977180688,-0.076614453125,9.9215716796875,-0.756567724609375
1.82861252169835,-0.05746083984375,9.90720646972656,-0.689530078125
1.83734527158981,-0.0430956298828125,9.95030209960937,-0.718260498046875
1.84607802148128,-0.086191259765625,9.96466730957031,-0.713472094726562
1.8548291331349,-0.0622492431640625,9.95030209960937,-0.665588061523437
1.86358024478852,-0.0718260498046875,9.94072529296875,-0.622492431640625
1.87233135644215,-0.086191259765625,9.97424411621094,-0.713472094726562
1.88108827766609,-0.047884033203125,9.98382092285156,-0.737414111328125
1.88984519889004,-0.0622492431640625,9.93114848632812,-0.689530078125
1.89860212011399,-0.0526724365234375,9.93593688964844,-0.713472094726562
1.90748451985356,-0.086191259765625,9.97424411621094,-0.699106884765625
1.91636691959313,-0.0335188232421875,9.97424411621094,-0.684741674804688
1.92524931933269,-0.05746083984375,9.93593688964844,-0.718260498046875
1.93413805815646,-0.0909796630859375,9.98860932617187,-0.8044517578125
1.94302679698023,-0.05746083984375,9.96466730957031,-0.780509741210937
1.95191553580401,-0.05746083984375,9.96945571289062,-0.675164868164063
1.96080803819113,-0.028730419921875,9.93593688964844,-0.660799658203125
1.96970054057825,-0.028730419921875,9.95509050292969,-0.74699091796875
1.97859304296537,0.009576806640625,9.98382092285156,-0.689530078125
1.9874890793152,-0.028730419921875,9.95030209960937,-0.67037646484375
1.99638511566502,-0.0239420166015625,9.94072529296875,-0.684741674804688
2.00528115201485,-0.0430956298828125,9.95030209960937,-0.699106884765625
2.01418117187162,-0.0383072265625,9.94072529296875,-0.679953271484375
2.02308119172839,-0.0430956298828125,9.94072529296875,-0.641646044921875
2.03198121158516,-0.028730419921875,9.91199487304687,-0.713472094726562
2.04088475010512,-0.0335188232421875,9.9215716796875,-0.684741674804688
2.04978828862507,-0.047884033203125,9.91678327636719,-0.622492431640625
2.05869182714503,-0.028730419921875,9.95509050292969,-0.598550415039062
2.06761362944534,-0.0335188232421875,9.95030209960937,-0.684741674804688
2.07653543174566,-0.0430956298828125,9.93593688964844,-0.660799658203125
2.08545723404598,-0.0430956298828125,9.93114848632812,-0.70868369140625
2.10782316468288,-0.0335188232421875,9.95030209960937,-0.699106884765625
2.13018909531979,-0.0383072265625,9.94072529296875,-0.70868369140625
2.1525550259567,-0.0526724365234375,9.96466730957031,-0.627280834960937
2.16151843470233,-0.0239420166015625,9.98860932617187,-0.689530078125
2.17048184344797,0.0143652099609375,9.99339772949219,-0.665588061523437
2.1794452521936,-0.028730419921875,9.98860932617187,-0.679953271484375
2.18848084529253,-0.0383072265625,9.93114848632812,-0.694318481445312
2.19751643839146,-0.01915361328125,9.96466730957031,-0.737414111328125
2.20655203149039,-0.009576806640625,9.94072529296875,-0.689530078125
2.21559342884281,-0.0383072265625,9.93593688964844,-0.67037646484375
2.22463482619524,-0.0526724365234375,9.93593688964844,-0.67037646484375
2.23367622354766,-0.0047884033203125,9.95030209960937,-0.713472094726562
2.24272051901204,-0.067037646484375,9.95030209960937,-0.689530078125
2.25176481447642,-0.0383072265625,9.94072529296875,-0.699106884765625
2.26080910994079,-0.067037646484375,9.94551369628906,-0.751779321289062
2.26985935115171,-0.067037646484375,9.95030209960937,-0.699106884765625
2.27890959236263,-0.01915361328125,9.97424411621094,-0.641646044921875
2.28795983357355,-0.05746083984375,9.95987890625,-0.689530078125
2.2970137971152,-0.0047884033203125,9.95987890625,-0.7278373046875
2.30606776065684,0.0047884033203125,9.91199487304687,-0.7278373046875
2.31512172419849,-0.0239420166015625,9.9215716796875,-0.723048901367187
2.32417758596063,-0.028730419921875,9.97903251953125,-0.756567724609375
2.33323344772276,-0.0047884033203125,9.93114848632812,-0.684741674804688
2.3422893094849,-0.0047884033203125,9.95030209960937,-0.656011254882812
2.35134714010555,-0.05746083984375,9.95030209960937,-0.694318481445312
2.3604049707262,-0.0430956298828125,9.9215716796875,-0.718260498046875
2.36946280134686,-0.086191259765625,9.96945571289062,-0.756567724609375
2.38311995716281,-0.0335188232421875,9.96466730957031,-0.7278373046875
2.39677711297876,-0.0335188232421875,9.93593688964844,-0.732625708007812
2.41043426879472,-0.01915361328125,9.96466730957031,-0.7278373046875
2.41955160516624,-0.0047884033203125,9.95030209960937,-0.665588061523437
2.42866894153776,-0.0430956298828125,9.9215716796875,-0.703895288085937
2.43778627790928,-0.009576806640625,9.93114848632812,-0.679953271484375
2.44690629906812,-0.047884033203125,9.93114848632812,-0.703895288085937
2.45602632022696,-0.0335188232421875,9.9215716796875,-0.699106884765625
2.4651463413858,-0.0335188232421875,9.9215716796875,-0.694318481445312
2.47426821595175,-0.0430956298828125,9.94072529296875,-0.732625708007812
2.4833900905177,-0.0430956298828125,9.93114848632812,-0.718260498046875
2.49251196508365,-0.01915361328125,9.91678327636719,-0.689530078125
2.50163565388572,-0.05746083984375,9.93114848632812,-0.699106884765625
2.51075934268779,-0.047884033203125,9.91199487304687,-0.699106884765625
2.51988303148985,-0.0047884033203125,9.92636008300781,-0.689530078125
2.5290743997624,-0.067037646484375,9.93593688964844,-0.646434448242187
2.53826576803494,-0.0335188232421875,9.90241806640625,-0.694318481445312
2.54745713630749,-0.0718260498046875,9.883264453125,-0.6512228515625
2.556651308725,-0.067037646484375,9.93114848632812,-0.723048901367187
2.56584548114251,-0.009576806640625,9.90720646972656,-0.689530078125
2.57503965356003,-0.0335188232421875,9.95030209960937,-0.703895288085937
2.58423591896799,-0.028730419921875,9.93114848632812,-0.660799658203125
2.59343218437595,-0.01915361328125,9.93114848632812,-0.67037646484375
2.60262844978391,-0.0526724365234375,9.9215716796875,-0.6512228515625
2.61182665290891,-0.0239420166015625,9.93593688964844,-0.675164868164063
2.62102485603391,-0.01915361328125,9.90720646972656,-0.67037646484375
2.63022305915891,-0.047884033203125,9.94072529296875,-0.665588061523437
2.63942306838198,-0.0335188232421875,9.93593688964844,-0.684741674804688
2.64862307760506,-0.0383072265625,9.90720646972656,-0.665588061523437
2.65782308682813,-0.0383072265625,9.93114848632812,-0.723048901367187
2.66709492352515,-0.05746083984375,9.92636008300781,-0.70868369140625
2.67636676022216,-0.0383072265625,9.95030209960937,-0.67037646484375
2.68563859691918,-0.0430956298828125,9.94551369628906,-0.761356127929687
2.69491723689311,-0.0335188232421875,10.0077629394531,-0.7278373046875
2.70419587686705,-0.0383072265625,9.93593688964844,-0.7278373046875
2.71347451684099,-0.0383072265625,9.96466730957031,-0.70868369140625
2.72275693925852,-0.028730419921875,9.90720646972656,-0.770932934570312
2.73203936167604,-0.0335188232421875,9.97903251953125,-0.74699091796875
2.74132178409357,-0.0526724365234375,9.95987890625,-0.732625708007812
2.75060774416302,-0.028730419921875,9.99339772949219,-0.751779321289062
2.75989370423246,-0.028730419921875,9.96945571289062,-0.7278373046875
2.7691796643019,-0.009576806640625,9.95509050292969,-0.713472094726562
2.77846958921508,-0.047884033203125,9.96466730957031,-0.737414111328125
2.78775951412826,-0.0383072265625,9.94072529296875,-0.7278373046875
2.79704943904144,-0.0622492431640625,9.96466730957031,-0.684741674804688
2.80640781718814,-0.076614453125,9.97424411621094,-0.78529814453125
2.81576619533484,-0.0239420166015625,9.97424411621094,-0.7278373046875
2.82512457348153,-0.0622492431640625,9.95987890625,-0.761356127929687
2.83448860364644,-0.0143652099609375,10.0173397460938,-0.751779321289062
2.84385263381136,0.0047884033203125,9.93114848632812,-0.751779321289062
2.85321666397627,-0.067037646484375,9.94072529296875,-0.689530078125
2.86258442558649,-0.0622492431640625,9.95987890625,-0.775721337890625
2.8719521871967,-0.028730419921875,10.0077629394531,-0.732625708007812
2.88131994880692,-0.047884033203125,10.0077629394531,-0.699106884765625
2.89069279255689,-0.0430956298828125,9.98382092285156,-0.76614453125
2.90006563630685,-0.0143652099609375,9.93114848632812,-0.732625708007812
2.90943848005682,-0.0239420166015625,9.97903251953125,-0.756567724609375
2.91886466473563,-0.0383072265625,9.97424411621094,-0.660799658203125
2.92829084941444,-0.047884033203125,9.95030209960937,-0.70868369140625
2.93771703409325,-0.028730419921875,9.95509050292969,-0.70868369140625
2.94716301890225,-0.0622492431640625,9.94072529296875,-0.684741674804688
2.95660900371126,-0.0335188232421875,9.99339772949219,-0.679953271484375
2.96605498852026,-0.0239420166015625,9.98382092285156,-0.703895288085937
2.97550672766953,-0.047884033203125,9.97424411621094,-0.713472094726562
2.98495846681881,-0.0383072265625,9.98382092285156,-0.694318481445312
2.99441020596808,-0.0430956298828125,9.96945571289062,-0.675164868164063
3.00386415996111,-0.0430956298828125,9.94551369628906,-0.742202514648437
3.01331811395413,-0.0047884033203125,9.99339772949219,-0.660799658203125
3.02277206794716,-0.0383072265625,9.96945571289062,-0.70868369140625
3.03222789542109,-0.0239420166015625,9.95509050292969,-0.7278373046875
3.04168372289503,-0.0335188232421875,9.97903251953125,-0.703895288085937
3.05113955036896,-0.0335188232421875,9.95030209960937,-0.742202514648437
3.06059720716146,-0.0383072265625,10.0029745361328,-0.751779321289062
3.07005486395397,-0.067037646484375,9.91678327636719,-0.737414111328125
3.07951252074648,-0.0526724365234375,9.98860932617187,-0.59376201171875
3.08901672615012,-0.0526724365234375,9.95509050292969,-0.627280834960937
3.09852093155377,-0.0143652099609375,9.97424411621094,-0.723048901367187
3.10802513695742,-0.0239420166015625,9.96945571289062,-0.660799658203125
3.11753536655809,-0.01915361328125,9.91199487304687,-0.703895288085937
3.12704559615875,-0.01915361328125,9.95987890625,-0.76614453125
3.13655582575942,0.0047884033203125,9.95987890625,-0.684741674804688
3.14606976857623,-0.0383072265625,9.97424411621094,-0.718260498046875
3.15558371139304,-0.0383072265625,9.95987890625,-0.679953271484375
3.16509765420986,-0.0622492431640625,9.97424411621094,-0.699106884765625
3.17463091430097,-0.028730419921875,9.92636008300781,-0.737414111328125
3.18416417439209,0.0,9.96466730957031,-0.76614453125
3.1936974344832,-0.028730419921875,9.97903251953125,-0.7278373046875
3.20323501054655,-0.028730419921875,9.97424411621094,-0.699106884765625
3.21277258660991,-0.047884033203125,9.98382092285156,-0.684741674804688
3.22231016267327,-0.0383072265625,9.95987890625,-0.770932934570312
3.23197118632776,-0.0383072265625,9.95509050292969,-0.713472094726562
3.24163220998225,-0.047884033203125,9.94072529296875,-0.689530078125
3.25129323363674,0.0,9.9981861328125,-0.656011254882812
3.26095776857595,-0.067037646484375,9.9215716796875,-0.742202514648437
3.27062230351516,-0.0622492431640625,9.99339772949219,-0.742202514648437
3.28028683845437,-0.05746083984375,9.91199487304687,-0.67037646484375
3.28617773624083,-0.0430956298828125,9.98860932617187,-0.70868369140625
3.29206863402729,-0.0622492431640625,9.95987890625,-0.70868369140625
3.29795953181375,-0.0335188232421875,9.94072529296875,-0.665588061523437
3.30007256577645,-0.0814028564453125,9.98382092285156,-0.70868369140625
3.30218559973915,-0.0335188232421875,9.97903251953125,-0.684741674804688
3.30429863370185,-0.047884033203125,9.97903251953125,-0.694318481445312
3.30641124372788,-0.047884033203125,9.97903251953125,-0.694318481445312
3.30852385375392,0.0,10.0125513427734,-0.622492431640625
3.31063646377996,-0.01915361328125,9.97903251953125,-0.569819995117188
3.31267878864976,-0.0383072265625,9.99339772949219,-0.646434448242187
3.31472111351956,-0.0143652099609375,9.96945571289062,-0.675164868164063
3.31676343838936,-0.0622492431640625,9.96945571289062,-0.660799658203125
3.31880244631038,-0.05746083984375,9.95509050292969,-0.689530078125
3.3208414542314,-0.05746083984375,9.98382092285156,-0.656011254882812
3.32288046215243,-0.01915361328125,9.93593688964844,-0.627280834960937
3.32807871795756,-0.09576806640625,9.94072529296875,-0.646434448242187
3.33327697376269,-0.0383072265625,9.96945571289062,-0.689530078125
3.33847522956782,-0.0143652099609375,9.95509050292969,-0.67037646484375
3.34054695499097,-0.05746083984375,9.94551369628906,-0.67037646484375
3.34261868041412,-0.0383072265625,9.95987890625,-0.684741674804688
3.34469040583727,-0.05746083984375,9.94551369628906,-0.646434448242187
3.34672835907076,-0.05746083984375,9.96945571289062,-0.67037646484375
3.34876631230424,-0.05746083984375,9.96945571289062,-0.63206923828125
3.35080426553773,-0.009576806640625,9.96466730957031,-0.6512228515625
3.35283821052473,-0.01915361328125,9.96466730957031,-0.622492431640625
3.35487215551172,-0.047884033203125,9.96466730957031,-0.703895288085937
3.35690610049872,-0.0143652099609375,9.98860932617187,-0.627280834960937
3.35893907109334,-0.0239420166015625,9.98860932617187,-0.6512228515625
3.36097204168795,-0.0622492431640625,9.95509050292969,-0.608127221679687
3.36300501228257,-0.0239420166015625,9.97424411621094,-0.584185205078125
3.36509723542712,-0.009576806640625,10.0173397460938,-0.684741674804688
3.36718945857167,0.01915361328125,9.97903251953125,-0.656011254882812
3.36928168171622,0.0047884033203125,9.96466730957031,-0.694318481445312
3.37134668562247,-0.0143652099609375,9.97903251953125,-0.5746083984375
3.37341168952873,-0.0430956298828125,9.96466730957031,-0.641646044921875
3.37547669343499,-0.0143652099609375,9.95030209960937,-0.636857641601562
3.37751521746925,-0.01915361328125,9.96466730957031,-0.6512228515625
3.3795537415035,-0.0143652099609375,9.95987890625,-0.646434448242187
3.38159226553776,0.009576806640625,9.95509050292969,-0.665588061523437
3.38363067688758,0.01915361328125,9.97424411621094,-0.641646044921875
3.38566908823739,-0.028730419921875,9.95509050292969,-0.636857641601562
3.38770749958721,-0.0047884033203125,9.95509050292969,-0.6512228515625
3.38974562420743,-0.009576806640625,9.96466730957031,-0.622492431640625
3.39178374882765,-0.0335188232421875,10.0125513427734,-0.684741674804688
3.39382187344788,-0.0143652099609375,10.0077629394531,-0.689530078125
3.39591488994094,-0.0143652099609375,9.98382092285156,-0.665588061523437
3.398007906434,-0.0047884033203125,10.0412817626953,-0.656011254882812
3.40010092292707,-0.0047884033203125,9.97903251953125,-0.723048901367187
3.40216517981727,-0.0335188232421875,10.0077629394531,-0.699106884765625
3.40422943670748,-0.0143652099609375,10.0029745361328,-0.7278373046875
3.40629369359769,-0.01915361328125,9.97903251953125,-0.742202514648437
3.40832976608032,0.0,9.95987890625,-0.694318481445312
3.41036583856295,0.01915361328125,9.97424411621094,-0.70868369140625
3.41240191104558,-0.028730419921875,9.95509050292969,-0.665588061523437
3.41443704087412,-0.0143652099609375,9.92636008300781,-0.689530078125
3.41647217070267,-0.05746083984375,9.93593688964844,-0.76614453125
3.41850730053122,-0.028730419921875,9.94072529296875,-0.675164868164063
3.42054113218271,-0.0526724365234375,9.92636008300781,-0.684741674804688
3.42257496383419,-0.0143652099609375,9.94072529296875,-0.675164868164063
3.42460879548568,-0.009576806640625,9.93114848632812,-0.713472094726562
3.42670804526867,-0.0430956298828125,9.91199487304687,-0.756567724609375
3.42880729505166,-0.0383072265625,9.88805285644531,-0.684741674804688
3.43090654483464,-0.0143652099609375,9.89762966308594,-0.70868369140625
3.43297404402084,-0.0622492431640625,9.89284125976562,-0.794874951171875
3.43504154320704,-0.009576806640625,9.86411083984375,-0.703895288085937
3.43710904239325,-0.0047884033203125,9.88805285644531,-0.703895288085937
3.43914379331554,-0.01915361328125,9.86889924316406,-0.694318481445312
3.44117854423783,-0.0383072265625,9.883264453125,-0.756567724609375
3.44321329516012,-0.0239420166015625,9.88805285644531,-0.703895288085937
3.44524727139713,-0.0430956298828125,9.85453403320312,-0.751779321289062
3.44728124763413,-0.0430956298828125,9.89284125976562,-0.679953271484375
3.44931522387114,-0.0383072265625,9.87368764648437,-0.713472094726562
3.45134944544231,-0.0622492431640625,9.88805285644531,-0.775721337890625
3.45338366701349,-0.067037646484375,9.93593688964844,-0.770932934570312
3.45541788858466,-0.047884033203125,9.89762966308594,-0.761356127929687
3.45752208275783,-0.067037646484375,9.94072529296875,-0.737414111328125
3.459626276931,-0.0335188232421875,9.88805285644531,-0.76614453125
3.46173047110418,-0.0718260498046875,9.93114848632812,-0.756567724609375
3.46380105465453,-0.0383072265625,9.91678327636719,-0.780509741210937
3.46587163820488,-0.009576806640625,9.90720646972656,-0.76614453125
3.46794222175524,-0.028730419921875,9.91199487304687,-0.78529814453125
3.46997624774266,0.0047884033203125,9.9215716796875,-0.756567724609375
3.47201027373009,-0.0335188232421875,9.90720646972656,-0.770932934570312
3.47404429971752,-0.0239420166015625,9.93593688964844,-0.82360537109375
3.47607674530126,-0.0239420166015625,9.90720646972656,-0.780509741210937
3.478109190885,-0.028730419921875,9.94072529296875,-0.76614453125
3.48014163646874,0.0047884033203125,9.95987890625,-0.751779321289062
3.48217332380599,-0.0383072265625,9.95987890625,-0.742202514648437
3.48420501114325,0.0,9.96466730957031,-0.756567724609375
3.4862366984805,-0.01915361328125,9.95509050292969,-0.732625708007812
3.48834885315715,0.0,9.91678327636719,-0.737414111328125
3.49046100783381,-0.01915361328125,9.95030209960937,-0.751779321289062
3.49257316251047,0.0,9.89284125976562,-0.76614453125
3.49465774622355,-0.01915361328125,9.90241806640625,-0.74699091796875
3.49674232993663,-0.01915361328125,9.95030209960937,-0.756567724609375
3.49882691364971,0.009576806640625,9.91199487304687,-0.713472094726562
3.50088214618007,-0.028730419921875,9.94072529296875,-0.6512228515625
3.50293737871043,-0.0239420166015625,9.89762966308594,-0.641646044921875
3.50499261124079,-0.0047884033203125,9.94072529296875,-0.612915625
3.50704845070477,0.0,9.93593688964844,-0.723048901367187
3.50910429016874,-0.0143652099609375,9.95030209960937,-0.684741674804688
3.51116012963271,-0.0143652099609375,9.96466730957031,-0.703895288085937
3.51321743486273,0.028730419921875,9.96466730957031,-0.656011254882812
3.51527474009275,0.0143652099609375,9.95987890625,-0.703895288085937
3.51733204532277,0.0,9.93593688964844,-0.63206923828125
3.51943268149899,0.0239420166015625,9.95509050292969,-0.723048901367187
3.52153331767521,0.0239420166015625,9.96466730957031,-0.6512228515625
3.52363395385143,-0.01915361328125,9.98860932617187,-0.646434448242187
3.52572013983232,0.0335188232421875,10.0125513427734,-0.684741674804688
3.5278063258132,0.047884033203125,9.96945571289062,-0.694318481445312
3.52989251179409,-0.0430956298828125,9.96945571289062,-0.660799658203125
3.53194346953064,0.0383072265625,10.0125513427734,-0.684741674804688
3.53399442726719,0.0,10.036493359375,-0.675164868164063
3.53604538500375,0.0,9.9981861328125,-0.684741674804688
3.53808900126894,0.05746083984375,9.98860932617187,-0.67037646484375
3.54013261753413,0.0143652099609375,9.9981861328125,-0.684741674804688
3.54217623379932,0.028730419921875,9.9981861328125,-0.718260498046875
3.54421361227157,0.0526724365234375,9.98382092285156,-0.679953271484375
3.54625099074382,0.0047884033203125,10.0077629394531,-0.67037646484375
3.54828836921607,0.047884033203125,10.0029745361328,-0.718260498046875
3.5503722984153,0.0430956298828125,10.0221281494141,-0.656011254882812
3.55245622761454,0.0047884033203125,9.97903251953125,-0.737414111328125
3.55454015681377,0.009576806640625,9.97903251953125,-0.679953271484375
3.55659980639061,0.047884033203125,10.0221281494141,-0.6512228515625
3.55865945596744,0.0383072265625,9.97903251953125,-0.67037646484375
3.56071910554428,0.05746083984375,9.98382092285156,-0.67037646484375
3.56275203778168,0.01915361328125,10.0029745361328,-0.76614453125
3.56478497001908,0.0143652099609375,9.96945571289062,-0.703895288085937
3.56681790225647,-0.009576806640625,10.0077629394531,-0.67037646484375
3.56884848738018,0.01915361328125,10.0029745361328,-0.684741674804688
3.57087907250389,0.0047884033203125,10.0221281494141,-0.70868369140625
3.5729096576276,-0.0143652099609375,9.97903251953125,-0.689530078125
3.57493672229774,0.0143652099609375,9.96945571289062,-0.67037646484375
3.57696378696787,0.0430956298828125,9.98860932617187,-0.6512228515625
3.578990851638,0.0622492431640625,9.92636008300781,-0.641646044921875
3.58108318627341,0.009576806640625,9.95987890625,-0.694318481445312
3.58317552090882,0.0143652099609375,9.95509050292969,-0.684741674804688
3.58526785554423,0.028730419921875,9.93593688964844,-0.617704028320312
3.58733524101514,0.0239420166015625,9.93593688964844,-0.641646044921875
3.58940262648604,0.047884033203125,9.9215716796875,-0.598550415039062
3.59147001195694,0.0047884033203125,9.95987890625,-0.59376201171875
3.59351029130807,-0.0047884033203125,9.97903251953125,-0.636857641601562
3.5955505706592,0.009576806640625,9.93114848632812,-0.641646044921875
3.59759085001033,0.0335188232421875,9.91678327636719,-0.598550415039062
3.59963277297041,0.0430956298828125,9.95509050292969,-0.579396801757812
3.60167469593048,0.0239420166015625,9.91678327636719,-0.608127221679687
3.60371661889056,0.0143652099609375,9.97903251953125,-0.636857641601562
3.60575980834368,0.01915361328125,9.95030209960937,-0.646434448242187
3.60780299779681,0.0047884033203125,9.93114848632812,-0.636857641601562
3.60984618724993,-0.0047884033203125,9.95987890625,-0.569819995117188
3.6119140134218,0.0047884033203125,9.93114848632812,-0.679953271484375
3.61398183959366,-0.0383072265625,9.93114848632812,-0.617704028320312
3.61604966576553,0.0335188232421875,9.95509050292969,-0.6512228515625
3.61808328013186,-0.0047884033203125,9.93593688964844,-0.608127221679687
3.62011689449818,-0.0047884033203125,9.94072529296875,-0.70868369140625
3.62215050886451,0.0383072265625,9.90241806640625,-0.641646044921875
3.62418277188534,0.009576806640625,9.94551369628906,-0.684741674804688
3.62621503490617,0.0047884033203125,9.97424411621094,-0.679953271484375
3.628247297927,0.0,9.93593688964844,-0.694318481445312
3.63027890920088,0.01915361328125,9.97903251953125,-0.742202514648437
3.63231052047476,-0.0047884033203125,9.97424411621094,-0.756567724609375
3.63434213174864,0.0,9.92636008300781,-0.665588061523437
3.63637353170521,-0.0047884033203125,9.94551369628906,-0.679953271484375
3.63840493166179,-0.009576806640625,9.94072529296875,-0.679953271484375
3.64043633161836,0.0047884033203125,9.94072529296875,-0.646434448242187
3.64253618356062,-0.009576806640625,9.95509050292969,-0.699106884765625
3.64463603550288,0.009576806640625,9.95509050292969,-0.723048901367187
3.64673588744515,-0.009576806640625,9.97424411621094,-0.723048901367187
3.6488089307394,-0.0622492431640625,9.96945571289062,-0.70868369140625
3.65088197403366,0.009576806640625,9.97424411621094,-0.74699091796875
3.65295501732791,0.0047884033203125,9.93114848632812,-0.675164868164063
3.65499581404014,-0.0430956298828125,9.96945571289062,-0.751779321289062
3.65703661075237,-0.009576806640625,9.9981861328125,-0.660799658203125
3.65907740746459,0.0143652099609375,9.95030209960937,-0.751779321289062
3.66111749128621,0.009576806640625,9.94551369628906,-0.713472094726562
3.66315757510782,-0.0239420166015625,10.0029745361328,-0.713472094726562
3.66519765892943,-0.028730419921875,9.95987890625,-0.732625708007812
3.66723762030096,0.009576806640625,9.93593688964844,-0.751779321289062
3.66927758167248,-0.028730419921875,9.93593688964844,-0.7278373046875
3.67131754304401,0.01915361328125,9.95987890625,-0.7278373046875
3.67341881718679,-0.0383072265625,9.94551369628906,-0.742202514648437
3.67552009132956,0.0047884033203125,9.9215716796875,-0.742202514648437
3.67762136547233,-0.01915361328125,9.95509050292969,-0.718260498046875
3.67970665404654,-0.0143652099609375,9.95509050292969,-0.684741674804688
3.68179194262074,-0.0335188232421875,9.97424411621094,-0.74699091796875
3.68387723119494,-0.01915361328125,9.93593688964844,-0.732625708007812
3.68592637599747,-0.0526724365234375,9.94551369628906,-0.718260498046875
3.68797552079999,-0.028730419921875,9.95030209960937,-0.67037646484375
3.69002466560252,-0.028730419921875,9.92636008300781,-0.67037646484375
3.69207144668975,-0.0430956298828125,9.94551369628906,-0.713472094726562
3.69411822777697,-0.0143652099609375,9.97424411621094,-0.718260498046875
3.6961650088642,-0.028730419921875,9.96466730957031,-0.718260498046875
3.69821155552219,-0.0239420166015625,9.96945571289062,-0.742202514648437
3.70025810218019,-0.0239420166015625,9.96466730957031,-0.70868369140625
3.70230464883818,-0.028730419921875,9.93593688964844,-0.718260498046875
3.70439995184382,-0.0143652099609375,9.95987890625,-0.713472094726562
3.70649525484946,0.0,9.94072529296875,-0.7278373046875
3.7085905578551,-0.0047884033203125,9.97903251953125,-0.737414111328125
3.71065931056778,-0.0430956298828125,9.94072529296875,-0.751779321289062
3.71272806328046,-0.009576806640625,9.95030209960937,-0.756567724609375
3.71479681599314,-0.0335188232421875,9.97424411621094,-0.761356127929687
3.71682850843021,-0.0143652099609375,9.97424411621094,-0.761356127929687
3.71886020086728,-0.01915361328125,9.90720646972656,-0.74699091796875
3.72089189330435,-0.0047884033203125,9.98382092285156,-0.742202514648437
3.72292858351702,0.009576806640625,9.96945571289062,-0.7278373046875
3.72496527372968,-0.0383072265625,9.98382092285156,-0.74699091796875
3.72700196394234,-0.009576806640625,9.97903251953125,-0.699106884765625
3.72903621958469,0.0047884033203125,10.0077629394531,-0.70868369140625
3.73107047522703,-0.0047884033203125,9.96466730957031,-0.737414111328125
3.73310473086937,-0.009576806640625,9.95509050292969,-0.751779321289062
3.7352612866962,-0.0047884033203125,9.96466730957031,-0.732625708007812
3.73741784252302,0.009576806640625,9.96466730957031,-0.737414111328125
3.73957439834984,-0.0239420166015625,9.96945571289062,-0.737414111328125
3.74171356610159,0.0047884033203125,9.96945571289062,-0.742202514648437
3.74385273385334,-0.0143652099609375,9.97903251953125,-0.694318481445312
3.74599190160509,-0.009576806640625,9.96466730957031,-0.737414111328125
3.74811029016846,-0.0239420166015625,9.94072529296875,-0.74699091796875
3.75022867873182,-0.0047884033203125,9.94551369628906,-0.756567724609375
3.75234706729518,0.01915361328125,9.96945571289062,-0.7278373046875
3.75446410516411,0.0335188232421875,9.95509050292969,-0.732625708007812
3.75658114303304,0.009576806640625,9.94072529296875,-0.703895288085937
3.75869818090197,0.0,9.92636008300781,-0.742202514648437
3.76080767970841,0.047884033203125,9.93114848632812,-0.7278373046875
3.76291717851485,0.01915361328125,9.95509050292969,-0.675164868164063
3.76502667732129,0.0335188232421875,9.94551369628906,-0.684741674804688
3.7671266048929,0.0383072265625,9.97424411621094,-0.78529814453125
3.76922653246452,0.0335188232421875,9.97424411621094,-0.713472094726562
3.77132646003614,0.047884033203125,9.95987890625,-0.718260498046875
3.77743531149011,0.028730419921875,9.94551369628906,-0.713472094726562
3.78354416294408,0.01915361328125,9.98382092285156,-0.689530078125
3.78965301439806,0.0335188232421875,9.92636008300781,-0.646434448242187
3.79168873808513,0.0430956298828125,9.93114848632812,-0.665588061523437
3.7937244617722,0.0239420166015625,9.96945571289062,-0.7278373046875
3.79576018545927,0.0143652099609375,9.97424411621094,-0.665588061523437
3.7977962863707,0.0430956298828125,9.95987890625,-0.660799658203125
3.79983238728212,0.0047884033203125,9.94551369628906,-0.723048901367187
3.80186848819355,0.0143652099609375,9.96466730957031,-0.718260498046875
3.80390482630117,-0.0047884033203125,9.96945571289062,-0.656011254882812
3.8059411644088,0.0239420166015625,9.95509050292969,-0.689530078125
3.80797750251642,0.0239420166015625,9.95987890625,-0.660799658203125
3.81000647685455,0.0335188232421875,9.94551369628906,-0.732625708007812
3.81203545119268,0.0383072265625,9.96945571289062,-0.684741674804688
3.8140644255308,0.01915361328125,9.95509050292969,-0.656011254882812
3.81612647098166,0.009576806640625,9.95030209960937,-0.699106884765625
3.81818851643251,0.028730419921875,9.93114848632812,-0.646434448242187
3.82025056188337,0.0239420166015625,9.89284125976562,-0.694318481445312
3.82229854043968,0.0,9.92636008300781,-0.665588061523437
3.82434651899598,0.0335188232421875,9.95509050292969,-0.74699091796875
3.82639449755229,0.0335188232421875,9.94072529296875,-0.703895288085937
3.82843242713126,0.01915361328125,9.9215716796875,-0.7278373046875
3.83047035671023,-0.009576806640625,9.95030209960937,-0.718260498046875
3.8325082862892,-0.0047884033203125,9.95030209960937,-0.703895288085937
3.83454631460951,0.0239420166015625,9.95987890625,-0.689530078125
3.83658434292982,0.0047884033203125,9.94551369628906,-0.63206923828125
3.83862237125012,0.0430956298828125,9.95030209960937,-0.74699091796875
3.84059198952272,0.0430956298828125,9.95030209960937,-0.684741674804688
3.84256160779532,-0.0143652099609375,9.98382092285156,-0.699106884765625
3.84453122606791,0.0143652099609375,9.98382092285156,-0.723048901367187
3.84655622509135,0.0047884033203125,9.98860932617187,-0.723048901367187
3.84858122411478,0.0430956298828125,9.96466730957031,-0.7278373046875
3.85060622313821,0.009576806640625,9.98382092285156,-0.665588061523437
3.85263194438389,0.028730419921875,9.95509050292969,-0.679953271484375
3.85465766562956,0.0,9.99339772949219,-0.713472094726562
3.85668338687523,-0.0047884033203125,9.95030209960937,-0.713472094726562
3.8587053724438,0.028730419921875,9.95987890625,-0.6512228515625
3.86072735801236,-0.05746083984375,9.97424411621094,-0.694318481445312
3.86274934358093,0.0,9.92636008300781,-0.656011254882812
3.86476950872851,0.009576806640625,9.95509050292969,-0.713472094726562
3.86678967387609,0.0143652099609375,9.92636008300781,-0.737414111328125
3.86880983902367,-0.0047884033203125,9.95509050292969,-0.684741674804688
3.87082994416692,0.0,9.92636008300781,-0.70868369140625
3.87285004931017,0.0335188232421875,9.95987890625,-0.7278373046875
3.87487015445342,0.009576806640625,9.9981861328125,-0.622492431640625
3.87695662233535,-0.009576806640625,9.95509050292969,-0.660799658203125
3.87904309021728,-0.0047884033203125,9.95987890625,-0.70868369140625
3.88112955809922,0.0239420166015625,9.95987890625,-0.742202514648437
3.88317669281059,0.028730419921875,9.93114848632812,-0.694318481445312
3.88522382752197,-0.0239420166015625,9.96466730957031,-0.76614453125
3.88727096223334,0.0,9.95030209960937,-0.675164868164063
3.88930445968344,0.0047884033203125,9.94072529296875,-0.689530078125
3.89133795713354,0.028730419921875,9.92636008300781,-0.6512228515625
3.89337145458364,0.0383072265625,9.94072529296875,-0.699106884765625
3.89540417761966,0.0047884033203125,9.97424411621094,-0.74699091796875
3.89743690065567,0.0047884033203125,10.0029745361328,-0.656011254882812
3.89946962369169,-0.0047884033203125,9.95509050292969,-0.713472094726562
3.90150193212266,0.0526724365234375,9.96945571289062,-0.718260498046875
3.90353424055363,0.0143652099609375,9.95509050292969,-0.6512228515625
3.90556654898461,-0.0143652099609375,9.97424411621094,-0.713472094726562
3.90766710019989,0.028730419921875,9.95987890625,-0.699106884765625
3.90976765141517,0.0,9.95987890625,-0.723048901367187
3.91186820263044,0.01915361328125,9.94072529296875,-0.74699091796875
3.91393712016516,-0.0143652099609375,9.96466730957031,-0.713472094726562
3.91600603769988,0.01915361328125,9.95509050292969,-0.679953271484375
3.9180749552346,0.0047884033203125,9.94551369628906,-0.713472094726562
3.92011077744598,0.0,9.95030209960937,-0.737414111328125
3.92214659965737,-0.0047884033203125,9.94072529296875,-0.737414111328125
3.92418242186875,0.067037646484375,9.97424411621094,-0.74699091796875
3.92621779605497,-0.0047884033203125,9.98860932617187,-0.718260498046875
3.92825317024119,0.0239420166015625,9.95030209960937,-0.732625708007812
3.93028854442741,0.0,9.95987890625,-0.70868369140625
3.9323237440802,-0.009576806640625,9.94072529296875,-0.694318481445312
3.93435894373298,0.009576806640625,9.93114848632812,-0.74699091796875
3.93639414338577,0.0239420166015625,9.93114848632812,-0.699106884765625
3.93842927592698,-0.0047884033203125,9.96945571289062,-0.713472094726562
3.94046440846819,-0.009576806640625,9.91678327636719,-0.7278373046875
3.9424995410094,-0.0239420166015625,9.93593688964844,-0.703895288085937
3.94456696581409,-0.0143652099609375,9.89762966308594,-0.737414111328125
3.94663439061878,-0.009576806640625,9.94072529296875,-0.751779321289062
3.94870181542348,0.0047884033203125,9.95030209960937,-0.713472094726562
3.95073490130674,-0.0239420166015625,9.97903251953125,-0.761356127929687
3.95276798719001,0.0047884033203125,9.92636008300781,-0.732625708007812
3.95480107307327,0.0,9.90720646972656,-0.742202514648437
3.95683200672128,0.0,9.95987890625,-0.751779321289062
3.95886294036929,-0.0383072265625,9.95509050292969,-0.7278373046875
3.9608938740173,0.0,9.98382092285156,-0.756567724609375
3.96292306819047,0.01915361328125,9.95030209960937,-0.70868369140625
3.96495226236364,0.0143652099609375,9.99339772949219,-0.74699091796875
3.96698145653681,0.0143652099609375,10.0029745361328,-0.684741674804688
3.96900892734844,-0.0239420166015625,9.99339772949219,-0.70868369140625
3.97103639816006,-0.009576806640625,9.98860932617187,-0.78529814453125
3.97306386897168,0.0,9.96945571289062,-0.689530078125
3.97511838280631,-0.009576806640625,10.0077629394531,-0.756567724609375
3.97717289664094,-0.0383072265625,10.0173397460938,-0.684741674804688
3.97922741047557,0.0047884033203125,9.97903251953125,-0.70868369140625
3.98124867919303,-0.0047884033203125,9.94072529296875,-0.790086547851562
3.9832699479105,-0.0047884033203125,9.94551369628906,-0.718260498046875
3.98529121662796,0.0239420166015625,9.96945571289062,-0.694318481445312
3.98731090722041,0.01915361328125,9.95509050292969,-0.761356127929687
3.98933059781287,0.028730419921875,9.93114848632812,-0.742202514648437
3.99135028840533,0.0383072265625,9.95987890625,-0.775721337890625
3.99337130375909,0.0143652099609375,9.95987890625,-0.723048901367187
3.99539231911285,-0.01915361328125,9.96945571289062,-0.699106884765625
3.99741333446661,-0.0143652099609375,9.95509050292969,-0.732625708007812
3.99940959878954,-0.009576806640625,9.95509050292969,-0.660799658203125
4.00140586311246,0.01915361328125,9.93114848632812,-0.713472094726562
4.00340212743538,0.0047884033203125,9.91199487304687,-0.723048901367187
4.00542390781734,0.009576806640625,9.93114848632812,-0.703895288085937
4.00744568819929,-0.047884033203125,9.93114848632812,-0.660799658203125
4.00946746858125,-0.0335188232421875,9.9215716796875,-0.70868369140625
4.01148189967936,-0.0383072265625,9.93593688964844,-0.70868369140625
4.01349633077748,-0.0239420166015625,9.91678327636719,-0.723048901367187
4.01551076187559,0.009576806640625,9.93114848632812,-0.718260498046875
4.01752484162821,-0.009576806640625,9.94551369628906,-0.694318481445312
4.01953892138082,-0.009576806640625,9.93114848632812,-0.70868369140625
4.02155300113344,0.0,9.94551369628906,-0.737414111328125
4.02358375905446,-0.076614453125,9.93593688964844,-0.636857641601562
4.02561451697547,-0.0335188232421875,9.95509050292969,-0.694318481445312
4.02764527489649,-0.047884033203125,9.95509050292969,-0.699106884765625
4.02972365190387,-0.028730419921875,9.91678327636719,-0.703895288085937
4.03180202891125,-0.009576806640625,9.93593688964844,-0.70868369140625
4.03388040591864,-0.0047884033203125,9.94072529296875,-0.780509741210937
4.03593727278061,-0.01915361328125,9.95030209960937,-0.694318481445312
4.03799413964257,-0.0430956298828125,9.94072529296875,-0.694318481445312
4.04005100650454,-0.0143652099609375,9.96466730957031,-0.679953271484375
4.04208356612912,-0.009576806640625,9.95509050292969,-0.694318481445312
4.0441161257537,-0.0335188232421875,9.98382092285156,-0.689530078125
4.04614868537828,-0.01915361328125,9.96945571289062,-0.665588061523437
4.04817833538914,0.0047884033203125,9.98860932617187,-0.7278373046875
4.05020798539999,-0.028730419921875,9.98382092285156,-0.718260498046875
4.05223763541085,-0.009576806640625,9.97424411621094,-0.675164868164063
4.05425763801503,0.0239420166015625,9.9981861328125,-0.737414111328125
4.05627764061921,0.0335188232421875,10.0173397460938,-0.713472094726562
4.0582976432234,0.0047884033203125,10.0077629394531,-0.718260498046875
4.06030776974249,0.0239420166015625,10.0317049560547,-0.742202514648437
4.06231789626158,0.0430956298828125,9.98860932617187,-0.694318481445312
4.06432802278067,-0.0047884033203125,9.97903251953125,-0.70868369140625
4.06634576784362,0.028730419921875,10.0029745361328,-0.737414111328125
4.06836351290658,0.01915361328125,10.0221281494141,-0.67037646484375
4.07038125796953,0.0047884033203125,10.0173397460938,-0.718260498046875
4.07234087960582,0.0430956298828125,9.93593688964844,-0.737414111328125
4.07430050124212,0.0239420166015625,9.98382092285156,-0.699106884765625
4.07626012287841,-0.01915361328125,9.98860932617187,-0.7278373046875
4.07822054513319,0.0143652099609375,9.95509050292969,-0.689530078125
4.08018096738796,0.0,9.94551369628906,-0.63206923828125
4.08214138964274,0.0,9.94072529296875,-0.679953271484375
4.08410324695611,-0.028730419921875,9.95987890625,-0.694318481445312
4.08606510426948,-0.0047884033203125,9.96945571289062,-0.70868369140625
4.08802696158284,0.0047884033203125,9.90720646972656,-0.660799658203125
4.08999133897,-0.0047884033203125,9.89284125976562,-0.723048901367187
4.09195571635716,-0.0335188232421875,9.89762966308594,-0.694318481445312
4.09392009374432,-0.0047884033203125,9.90241806640625,-0.684741674804688
4.09595490401993,-0.0430956298828125,9.89762966308594,-0.70868369140625
4.09798971429554,-0.0335188232421875,9.89762966308594,-0.737414111328125
4.10002452457115,-0.0383072265625,9.90241806640625,-0.7278373046875
4.10206212862931,-0.0047884033203125,9.90720646972656,-0.694318481445312
4.10409973268747,-0.0526724365234375,9.93593688964844,-0.689530078125
4.10613733674563,-0.0239420166015625,9.89762966308594,-0.684741674804688
4.10817008216122,-0.067037646484375,9.86411083984375,-0.6512228515625
4.11020282757681,-0.009576806640625,9.91199487304687,-0.675164868164063
4.1122355729924,-0.0335188232421875,9.92636008300781,-0.684741674804688
4.11423954301737,-0.076614453125,9.87368764648437,-0.699106884765625
4.11624351304234,-0.047884033203125,9.93114848632812,-0.684741674804688
4.11824748306731,-0.0622492431640625,9.88805285644531,-0.622492431640625
4.12023081878779,-0.0430956298828125,9.90720646972656,-0.684741674804688
4.12221415450828,-0.0383072265625,9.90241806640625,-0.723048901367187
4.12419749022877,-0.0814028564453125,9.93114848632812,-0.67037646484375
4.12622000455171,-0.05746083984375,9.9215716796875,-0.713472094726562
4.12824251887465,-0.09576806640625,9.91678327636719,-0.70868369140625
4.13026503319759,-0.0383072265625,9.94072529296875,-0.689530078125
4.13230761392678,-0.0909796630859375,9.92636008300781,-0.699106884765625
4.13435019465597,-0.067037646484375,9.90720646972656,-0.703895288085937
4.13639277538516,-0.047884033203125,9.90720646972656,-0.703895288085937
4.13843561794158,-0.05746083984375,9.9215716796875,-0.713472094726562
4.140478460498,-0.0430956298828125,9.92636008300781,-0.756567724609375
4.14252130305442,-0.0143652099609375,9.93114848632812,-0.6512228515625
4.14456381162646,-0.01915361328125,9.94072529296875,-0.713472094726562
4.14660632019851,-0.01915361328125,9.94072529296875,-0.675164868164063
4.14864882877055,-0.01915361328125,9.93114848632812,-0.694318481445312
4.15063101789815,-0.0143652099609375,9.95030209960937,-0.723048901367187
4.15261320702575,0.028730419921875,9.94072529296875,-0.723048901367187
4.15459539615335,-0.01915361328125,9.93114848632812,-0.684741674804688
4.15662341362296,-0.0143652099609375,9.95987890625,-0.675164868164063
4.15865143109257,0.0,9.93593688964844,-0.675164868164063
4.16067944856218,0.009576806640625,9.94072529296875,-0.723048901367187
4.1627038172688,-0.0430956298828125,9.93114848632812,-0.656011254882812
4.16472818597542,0.0,9.95509050292969,-0.751779321289062
4.16675255468203,-0.028730419921875,9.97903251953125,-0.665588061523437
4.16877394650059,-0.0239420166015625,9.95030209960937,-0.689530078125
4.17079533831914,-0.047884033203125,9.96945571289062,-0.751779321289062
4.1728167301377,-0.009576806640625,9.97903251953125,-0.70868369140625
4.17483678493371,-0.01915361328125,9.97424411621094,-0.689530078125
4.17685683972972,-0.0239420166015625,9.94551369628906,-0.732625708007812
4.17887689452573,-0.0622492431640625,9.94551369628906,-0.699106884765625
4.18083998870975,-0.0335188232421875,9.97424411621094,-0.603338818359375
4.18280308289377,-0.009576806640625,9.93114848632812,-0.74699091796875
4.18476617707779,-0.0430956298828125,9.95509050292969,-0.70868369140625
4.18687886012898,-0.0335188232421875,9.95509050292969,-0.665588061523437
4.18899154318016,-0.0239420166015625,9.9215716796875,-0.723048901367187
4.19110422623135,-0.047884033203125,9.97903251953125,-0.70868369140625
4.19321957486416,-0.067037646484375,9.94072529296875,-0.737414111328125
4.19533492349698,-0.047884033203125,9.97903251953125,-0.660799658203125
4.1974502721298,-0.0430956298828125,9.95987890625,-0.718260498046875
4.19956785622268,-0.0526724365234375,9.95987890625,-0.675164868164063
4.20168544031556,-0.0622492431640625,9.95030209960937,-0.689530078125
4.20380302440844,-0.076614453125,9.97424411621094,-0.660799658203125
4.20592265385721,-0.047884033203125,9.98382092285156,-0.723048901367187
4.20804228330599,-0.076614453125,9.93114848632812,-0.74699091796875
4.21016191275476,-0.067037646484375,9.95030209960937,-0.718260498046875
4.21221536446918,-0.067037646484375,9.95987890625,-0.660799658203125
4.2142688161836,-0.0335188232421875,9.96466730957031,-0.699106884765625
4.21632226789802,-0.0909796630859375,9.91678327636719,-0.67037646484375
4.2183748787921,-0.0814028564453125,9.93593688964844,-0.684741674804688
4.22042748968617,-0.110133276367187,9.93593688964844,-0.689530078125
4.22248010058024,-0.0814028564453125,9.95030209960937,-0.703895288085937
4.22453261360109,-0.076614453125,9.95509050292969,-0.718260498046875
4.22658512662194,-0.0814028564453125,9.95030209960937,-0.665588061523437
4.22863763964278,-0.067037646484375,9.9215716796875,-0.7278373046875
4.23381787979575,-0.076614453125,9.95509050292969,-0.675164868164063
4.23899811994871,-0.1149216796875,9.99339772949219,-0.679953271484375
4.24417836010167,-0.124498486328125,9.9215716796875,-0.617704028320312
4.24621278892111,-0.105344873046875,9.95030209960937,-0.6512228515625
4.24824721774055,-0.110133276367187,9.90720646972656,-0.694318481445312
4.25028164655998,-0.0814028564453125,9.91199487304687,-0.675164868164063
4.2523862062388,-0.067037646484375,9.9215716796875,-0.660799658203125
4.25449076591762,-0.047884033203125,9.93114848632812,-0.656011254882812
4.25659532559644,-0.105344873046875,9.90720646972656,-0.6512228515625
4.25872001423577,-0.076614453125,9.94072529296875,-0.603338818359375
4.26084470287511,-0.09576806640625,9.94551369628906,-0.656011254882812
4.26296939151445,-0.0814028564453125,9.94551369628906,-0.63206923828125
4.26509434567024,-0.0622492431640625,9.95509050292969,-0.6512228515625
4.26721929982604,-0.067037646484375,9.92636008300781,-0.627280834960937
4.26934425398184,-0.0909796630859375,9.95030209960937,-0.612915625
4.27142879195926,-0.09576806640625,9.98382092285156,-0.6512228515625
4.27351332993667,-0.0622492431640625,9.92636008300781,-0.67037646484375
4.27559786791409,-0.0430956298828125,9.95509050292969,-0.660799658203125
4.27763993209595,-0.047884033203125,9.97903251953125,-0.675164868164063
4.27968199627782,-0.0335188232421875,10.0221281494141,-0.684741674804688
4.28172406045968,-0.0622492431640625,9.97903251953125,-0.660799658203125
4.28376247419667,-0.0526724365234375,9.97903251953125,-0.694318481445312
4.28580088793367,-0.0622492431640625,9.96466730957031,-0.684741674804688
4.28783930167066,-0.0143652099609375,9.98860932617187,-0.627280834960937
4.28987514791633,-0.0622492431640625,10.0173397460938,-0.679953271484375
4.291910994162,-0.0526724365234375,9.99339772949219,-0.684741674804688
4.29394684040767,-0.01915361328125,9.9981861328125,-0.7278373046875
4.29705129670652,-0.0143652099609375,9.96466730957031,-0.713472094726562
4.30015575300537,-0.0383072265625,9.97903251953125,-0.780509741210937
4.30326020930423,-0.0526724365234375,9.98860932617187,-0.7278373046875
4.30529404947351,-0.047884033203125,9.9981861328125,-0.7278373046875
4.3073278896428,-0.076614453125,9.95987890625,-0.761356127929687
4.30936172981208,-0.0430956298828125,10.0221281494141,-0.684741674804688
4.31137687803258,0.0047884033203125,9.97903251953125,-0.8044517578125
4.31339202625307,-0.0526724365234375,9.99339772949219,-0.751779321289062
4.31540717447356,-0.0718260498046875,9.95987890625,-0.694318481445312
4.31742158690845,-0.01915361328125,9.97903251953125,-0.751779321289062
4.31943599934333,-0.047884033203125,10.0173397460938,-0.679953271484375
4.32145041177822,-0.05746083984375,9.95987890625,-0.723048901367187
4.3234648611055,-0.0335188232421875,9.98382092285156,-0.656011254882812
4.32547931043279,-0.05746083984375,9.96945571289062,-0.699106884765625
4.32749375976007,-0.047884033203125,10.0077629394531,-0.684741674804688
4.32957519357083,-0.0430956298828125,9.96945571289062,-0.684741674804688
4.33165662738159,-0.009576806640625,9.98382092285156,-0.689530078125
4.33373806119235,-0.01915361328125,9.98382092285156,-0.646434448242187
4.33577242989894,-0.0526724365234375,9.98860932617187,-0.684741674804688
4.33780679860554,-0.0526724365234375,9.93593688964844,-0.675164868164063
4.33984116731213,0.0047884033203125,9.95987890625,-0.617704028320312
4.34187478688677,-0.009576806640625,9.98382092285156,-0.699106884765625
4.34390840646141,-0.0383072265625,9.98382092285156,-0.617704028320312
4.34594202603606,-0.0047884033203125,9.98860932617187,-0.598550415039062
4.34797543532427,-0.0143652099609375,9.95509050292969,-0.627280834960937
4.35000884461248,-0.05746083984375,9.95509050292969,-0.627280834960937
4.35204225390069,-0.076614453125,9.97903251953125,-0.6512228515625
4.3540755339571,-0.0622492431640625,9.96466730957031,-0.5746083984375
4.3561088140135,-0.0383072265625,9.94551369628906,-0.622492431640625
4.3581420940699,-0.067037646484375,9.95509050292969,-0.612915625
4.36033235719927,-0.0622492431640625,9.94551369628906,-0.598550415039062
4.36252262032863,-0.0814028564453125,9.9981861328125,-0.622492431640625
4.364712883458,-0.047884033203125,9.95987890625,-0.665588061523437
4.36683882453875,-0.0622492431640625,9.95509050292969,-0.6512228515625
4.36896476561949,-0.047884033203125,9.97424411621094,-0.59376201171875
4.37109070670024,-0.0430956298828125,9.95030209960937,-0.675164868164063
4.37321283343638,-0.0622492431640625,9.98382092285156,-0.713472094726562
4.37533496017252,-0.047884033203125,10.0029745361328,-0.6512228515625
4.37745708690866,-0.0430956298828125,9.96466730957031,-0.70868369140625
4.37957779947376,-0.0239420166015625,9.95030209960937,-0.684741674804688
4.38169851203887,-0.0430956298828125,9.96945571289062,-0.675164868164063
4.38381922460397,-0.0335188232421875,9.95030209960937,-0.675164868164063
4.38593846353625,-0.01915361328125,9.99339772949219,-0.723048901367187
4.38805770246854,-0.0622492431640625,9.96466730957031,-0.703895288085937
4.39017694140082,0.0047884033203125,9.98382092285156,-0.6512228515625
4.39229459797634,-0.028730419921875,10.0173397460938,-0.684741674804688
4.39441225455186,-0.009576806640625,9.97903251953125,-0.675164868164063
4.39652991112737,-0.0335188232421875,9.95987890625,-0.723048901367187
4.3985881961751,-0.01915361328125,9.99339772949219,-0.699106884765625
4.40064648122282,-0.0335188232421875,9.95987890625,-0.660799658203125
4.40270476627055,0.009576806640625,9.95987890625,-0.689530078125
4.40792795740551,-0.009576806640625,9.99339772949219,-0.675164868164063
4.41315114854047,0.01915361328125,10.0221281494141,-0.703895288085937
4.41837433967544,0.0047884033203125,9.98860932617187,-0.665588061523437
4.42048319362508,0.0,9.9981861328125,-0.699106884765625
4.42259204757473,0.0335188232421875,9.99339772949219,-0.70868369140625
4.42470090152437,0.0047884033203125,10.0029745361328,-0.699106884765625
4.42677563166762,-0.0047884033203125,10.0077629394531,-0.689530078125
4.42885036181087,0.0239420166015625,9.98382092285156,-0.70868369140625
4.43092509195412,-0.0383072265625,9.96466730957031,-0.74699091796875
4.43296417545023,-0.01915361328125,9.97903251953125,-0.622492431640625
4.43500325894634,-0.0383072265625,9.9981861328125,-0.699106884765625
4.43704234244245,-0.0047884033203125,9.96466730957031,-0.679953271484375
4.43907965928273,0.0239420166015625,9.99339772949219,-0.718260498046875
4.44111697612302,0.009576806640625,9.98860932617187,-0.627280834960937
4.4431542929633,-0.0143652099609375,9.99339772949219,-0.70868369140625
4.44525114099933,0.01915361328125,9.95509050292969,-0.598550415039062
4.44734798903535,0.0430956298828125,9.97903251953125,-0.665588061523437
4.44944483707138,0.0430956298828125,9.97424411621094,-0.6512228515625
4.45154281895071,-0.028730419921875,9.95987890625,-0.67037646484375
4.45364080083004,0.0,9.97903251953125,-0.63206923828125
4.45573878270937,0.009576806640625,9.95030209960937,-0.67037646484375
4.45780680869679,-0.028730419921875,9.98860932617187,-0.6512228515625
4.45987483468421,-0.0047884033203125,10.0125513427734,-0.70868369140625
4.46194286067163,0.009576806640625,9.97903251953125,-0.584185205078125
4.46397098588864,0.0143652099609375,9.97424411621094,-0.598550415039062
4.46599911110565,0.0143652099609375,9.96466730957031,-0.641646044921875
4.46802723632265,0.0,9.96466730957031,-0.665588061523437
4.4700460352593,-0.0335188232421875,9.98860932617187,-0.67037646484375
4.47206483419594,0.0047884033203125,9.96945571289062,-0.732625708007812
4.47408363313258,-0.009576806640625,9.98382092285156,-0.67037646484375
4.4761686373101,0.009576806640625,10.0173397460938,-0.703895288085937
4.47825364148762,0.0,9.97424411621094,-0.684741674804688
4.48033864566514,-0.067037646484375,9.97903251953125,-0.675164868164063
4.48242502104491,-0.0047884033203125,9.96466730957031,-0.656011254882812
4.48451139642467,-0.0335188232421875,10.0269165527344,-0.694318481445312
4.48659777180444,-0.01915361328125,9.98860932617187,-0.703895288085937
4.4886599361382,-0.0526724365234375,9.96466730957031,-0.622492431640625
4.49072210047196,-0.0335188232421875,9.97903251953125,-0.59376201171875
4.49278426480572,-0.0383072265625,9.99339772949219,-0.603338818359375
4.49481987157653,-0.0143652099609375,9.97903251953125,-0.641646044921875
4.49685547834734,-0.028730419921875,9.9981861328125,-0.627280834960937
4.49889108511815,-0.05746083984375,9.98860932617187,-0.5746083984375
4.50092344346232,-0.076614453125,9.97424411621094,-0.646434448242187
4.5029558018065,-0.0622492431640625,9.94072529296875,-0.656011254882812
4.50498816015067,-0.0383072265625,9.95030209960937,-0.646434448242187
4.50707841568451,0.0,9.93114848632812,-0.636857641601562
4.50916867121835,-0.0335188232421875,9.95509050292969,-0.6512228515625
4.51125892675219,-0.0335188232421875,9.93593688964844,-0.679953271484375
4.51334082605778,0.0143652099609375,9.98382092285156,-0.675164868164063
4.51542272536337,-0.0430956298828125,9.95509050292969,-0.63206923828125
4.51750462466896,-0.028730419921875,9.9215716796875,-0.660799658203125
4.51952348181957,-0.0239420166015625,9.97424411621094,-0.656011254882812
4.52154233897018,-0.0526724365234375,9.98382092285156,-0.622492431640625
4.5235611961208,-0.047884033203125,9.92636008300781,-0.603338818359375
4.52551580332564,-0.028730419921875,9.95509050292969,-0.608127221679687
4.52747041053048,-0.0047884033203125,9.95987890625,-0.584185205078125
4.52942501773532,-0.0383072265625,9.91678327636719,-0.612915625
4.53137670328221,0.009576806640625,9.9215716796875,-0.584185205078125
4.53332838882909,0.0047884033203125,9.95030209960937,-0.622492431640625
4.53528007437598,0.0047884033203125,9.91678327636719,-0.5746083984375
4.53729772514638,-0.0335188232421875,9.94072529296875,-0.584185205078125
4.53931537591679,0.028730419921875,9.95509050292969,-0.584185205078125
4.5413330266872,-0.01915361328125,9.97903251953125,-0.63206923828125
4.54335542973623,-0.028730419921875,9.91199487304687,-0.665588061523437
4.54537783278526,-0.0143652099609375,9.95987890625,-0.612915625
4.54740023583429,0.009576806640625,9.93114848632812,-0.622492431640625
4.5494221916177,0.0143652099609375,9.90720646972656,-0.608127221679687
4.55144414740111,0.0239420166015625,9.94072529296875,-0.636857641601562
4.55346610318452,0.0143652099609375,9.97424411621094,-0.612915625
4.55548154845361,0.0239420166015625,9.95509050292969,-0.617704028320312
4.55749699372271,-0.047884033203125,9.92636008300781,-0.612915625
4.55951243899181,0.0047884033203125,9.93114848632812,-0.550666381835937
4.56150115915239,0.0239420166015625,9.94072529296875,-0.565031591796875
4.56348987931298,0.0047884033203125,9.94072529296875,-0.598550415039062
4.56547859947357,0.01915361328125,9.95987890625,-0.541089575195312
4.56750170162202,-0.0239420166015625,9.93593688964844,-0.560243188476563
4.56952480377047,-0.01915361328125,9.9215716796875,-0.560243188476563
4.57154790591892,0.0143652099609375,9.93114848632812,-0.5746083984375
4.57356558278525,0.0335188232421875,9.90720646972656,-0.617704028320312
4.57558325965158,-0.0047884033203125,9.95509050292969,-0.565031591796875
4.57760093651791,0.01915361328125,9.9215716796875,-0.531512768554687
4.57961929388555,0.01915361328125,9.95030209960937,-0.579396801757812
4.58163765125319,0.009576806640625,9.92636008300781,-0.608127221679687
4.58365600862084,0.0143652099609375,9.95030209960937,-0.622492431640625
4.58567746521805,0.01915361328125,9.95987890625,-0.588973608398437
4.58769892181527,-0.0143652099609375,9.92636008300781,-0.588973608398437
4.58972037841249,-0.0143652099609375,9.95987890625,-0.588973608398437
4.59174047666554,-0.0047884033203125,9.93114848632812,-0.603338818359375
4.5937605749186,0.0047884033203125,9.95509050292969,-0.622492431640625
4.59578067317165,0.009576806640625,9.91199487304687,-0.608127221679687
4.59783580240342,0.028730419921875,9.95987890625,-0.646434448242187
4.59989093163519,0.0047884033203125,9.95987890625,-0.584185205078125
4.60194606086696,0.0239420166015625,9.94072529296875,-0.59376201171875
4.60398286305881,0.0,9.95987890625,-0.55545478515625
4.60601966525066,-0.009576806640625,9.95509050292969,-0.660799658203125
4.60805646744251,-0.0047884033203125,9.94072529296875,-0.579396801757812
4.61009363649634,-0.0335188232421875,9.9215716796875,-0.541089575195312
4.61213080555018,0.028730419921875,9.91678327636719,-0.608127221679687
4.61416797460402,-0.0143652099609375,9.95509050292969,-0.646434448242187
4.61621783007278,0.0047884033203125,9.93593688964844,-0.612915625
4.61826768554154,0.0,9.96945571289062,-0.622492431640625
4.62031754101031,0.009576806640625,9.883264453125,-0.617704028320312
4.62236587228201,0.0047884033203125,9.90241806640625,-0.5746083984375
4.62441420355371,0.0239420166015625,9.90241806640625,-0.636857641601562
4.62646253482541,-0.009576806640625,9.91678327636719,-0.526724365234375
4.62852402739266,0.0047884033203125,9.93114848632812,-0.4979939453125
4.63058551995992,-0.01915361328125,9.95030209960937,-0.584185205078125
4.63264701252717,-0.0143652099609375,9.9215716796875,-0.6512228515625
4.63467892664393,-0.0143652099609375,9.91678327636719,-0.622492431640625
4.63671084076069,-0.01915361328125,9.90720646972656,-0.588973608398437
4.63874275487746,0.0,9.94551369628906,-0.641646044921875
4.64077375769864,-0.0143652099609375,9.93593688964844,-0.67037646484375
4.64280476051982,-0.009576806640625,9.94072529296875,-0.603338818359375
4.64483576334101,-0.0143652099609375,9.95030209960937,-0.63206923828125
4.64686661815872,-0.047884033203125,9.95030209960937,-0.646434448242187
4.64889747297642,-0.0239420166015625,9.91199487304687,-0.627280834960937
4.65092832779413,-0.028730419921875,9.96466730957031,-0.699106884765625
4.65295914338659,0.009576806640625,9.96466730957031,-0.641646044921875
4.65498995897904,0.0047884033203125,9.98860932617187,-0.689530078125
4.65702077457149,-0.0143652099609375,9.99339772949219,-0.646434448242187
4.65908691476246,0.0,9.98382092285156,-0.569819995117188
4.66115305495343,0.01915361328125,9.9981861328125,-0.63206923828125
4.66321919514439,-0.01915361328125,10.0173397460938,-0.63206923828125
4.6652528267633,-0.028730419921875,10.0173397460938,-0.665588061523437
4.66728645838221,0.01915361328125,10.0029745361328,-0.622492431640625
4.66932009000112,0.0383072265625,9.99339772949219,-0.699106884765625
4.67135352142471,0.028730419921875,9.95509050292969,-0.641646044921875
4.6733869528483,0.01915361328125,9.97903251953125,-0.598550415039062
4.67542038427189,0.0239420166015625,9.98382092285156,-0.598550415039062
4.67745360540903,0.0143652099609375,9.94551369628906,-0.627280834960937
4.67948682654617,0.0239420166015625,9.94072529296875,-0.584185205078125
4.68152004768331,0.0526724365234375,9.94072529296875,-0.603338818359375
4.68355307573235,0.028730419921875,9.98860932617187,-0.579396801757812
4.6855861037814,0.0239420166015625,9.97424411621094,-0.636857641601562
4.68761913183044,0.086191259765625,9.9981861328125,-0.63206923828125
4.68968541275494,0.0,9.93114848632812,-0.660799658203125
4.69175169367943,0.009576806640625,9.94551369628906,-0.622492431640625
4.69381797460392,0.009576806640625,9.96945571289062,-0.627280834960937
4.69585451947154,-0.0239420166015625,9.97424411621094,-0.59376201171875
4.69789106433916,0.0,9.95509050292969,-0.694318481445312
4.69992760920678,-0.0143652099609375,9.99339772949219,-0.675164868164063
4.70196500612519,0.0,9.95509050292969,-0.6512228515625
4.7040024030436,0.0047884033203125,9.95987890625,-0.627280834960937
4.70603979996201,-0.028730419921875,9.94072529296875,-0.641646044921875
4.7080771259711,-0.009576806640625,9.95030209960937,-0.656011254882812
4.71011445198019,0.0143652099609375,9.96945571289062,-0.660799658203125
4.71215177798928,0.009576806640625,9.97424411621094,-0.617704028320312
4.71418909358171,0.0239420166015625,9.96945571289062,-0.627280834960937
4.71622640917415,-0.0143652099609375,9.99339772949219,-0.622492431640625
4.71826372476659,0.0,9.98860932617187,-0.6512228515625
4.72036201670454,0.0047884033203125,9.99339772949219,-0.641646044921875
4.7224603086425,0.0,9.98860932617187,-0.646434448242187
4.72455860058045,-0.0143652099609375,9.96945571289062,-0.646434448242187
4.72662538644202,0.0047884033203125,9.96945571289062,-0.612915625
4.72869217230359,-0.0047884033203125,9.9981861328125,-0.579396801757812
4.73075895816515,-0.0047884033203125,10.0077629394531,-0.627280834960937
4.73279334721678,0.0239420166015625,9.97903251953125,-0.646434448242187
4.73482773626841,0.028730419921875,10.0317049560547,-0.646434448242187
4.73686212532004,-0.01915361328125,10.0269165527344,-0.5746083984375
4.73889740863166,0.028730419921875,10.0125513427734,-0.6512228515625
4.74093269194327,0.0526724365234375,9.99339772949219,-0.59376201171875
4.74296797525489,0.01915361328125,10.0412817626953,-0.699106884765625
4.74500409070627,0.009576806640625,10.0460701660156,-0.641646044921875
4.74704020615765,0.0622492431640625,10.0508585693359,-0.569819995117188
4.74907632160904,0.05746083984375,10.0125513427734,-0.656011254882812
4.75117224874661,0.01915361328125,10.0700121826172,-0.598550415039062
4.75326817588418,0.01915361328125,9.98860932617187,-0.627280834960937
4.75536410302175,0.009576806640625,10.0412817626953,-0.6512228515625
4.75743029784599,0.0239420166015625,10.0221281494141,-0.63206923828125
4.75949649267022,0.01915361328125,10.0269165527344,-0.622492431640625
4.76156268749446,0.0383072265625,10.0077629394531,-0.579396801757812
4.76359870908732,0.0383072265625,9.97903251953125,-0.612915625
4.76563473068018,0.0143652099609375,9.96945571289062,-0.636857641601562
4.76767075227303,0.0526724365234375,10.0173397460938,-0.608127221679687
4.76970525308684,-0.009576806640625,10.0077629394531,-0.608127221679687
4.77173975390065,0.028730419921875,9.96466730957031,-0.541089575195312
4.77377425471445,0.0,9.95987890625,-0.622492431640625
4.77580617148961,0.0047884033203125,9.89284125976562,-0.67037646484375
4.77783808826477,0.0047884033203125,9.94551369628906,-0.646434448242187
4.77987000503992,0.0383072265625,9.86889924316406,-0.627280834960937
4.78196494340796,0.01915361328125,9.88805285644531,-0.59376201171875
4.78405988177599,0.0622492431640625,9.90720646972656,-0.541089575195312
4.78615482014402,0.0047884033203125,9.87847604980469,-0.565031591796875
4.78822306482719,0.0143652099609375,9.94072529296875,-0.531512768554687
4.79029130951036,-0.0430956298828125,9.91678327636719,-0.531512768554687
4.79235955419352,0.01915361328125,9.90720646972656,-0.617704028320312
4.79439668461887,-0.0047884033203125,9.87368764648437,-0.569819995117188
4.79643381504421,-0.028730419921875,9.89284125976562,-0.550666381835937
4.79847094546955,-0.0335188232421875,9.93114848632812,-0.531512768554687
4.80050546163708,-0.01915361328125,9.89762966308594,-0.55545478515625
4.80253997780462,-0.01915361328125,9.86889924316406,-0.545877978515625
4.80457449397215,-0.0239420166015625,9.89284125976562,-0.521935961914062
4.80659967751164,0.0,9.91678327636719,-0.569819995117188
4.80862486105112,-0.047884033203125,9.89284125976562,-0.536301171875
4.8106500445906,-0.028730419921875,9.91199487304687,-0.569819995117188
4.81270732877031,0.009576806640625,9.90720646972656,-0.536301171875
4.81476461295002,-0.05746083984375,9.9215716796875,-0.521935961914062
4.81682189712973,-0.047884033203125,9.93593688964844,-0.565031591796875
4.81885675487714,-0.0335188232421875,9.95509050292969,-0.569819995117188
4.82089161262455,-0.0143652099609375,9.90720646972656,-0.512359155273437
4.82292647037195,-0.0047884033203125,9.91199487304687,-0.536301171875
4.8249612836315,0.0047884033203125,9.9215716796875,-0.55545478515625
4.82699609689106,-0.028730419921875,9.88805285644531,-0.521935961914062
4.82903091015061,-0.0383072265625,9.87847604980469,-0.612915625
4.8310657157604,0.0,9.89762966308594,-0.588973608398437
4.83310052137019,0.028730419921875,9.87847604980469,-0.526724365234375
4.83513532697998,-0.009576806640625,9.86889924316406,-0.47884033203125
4.83717005506156,-0.0047884033203125,9.91199487304687,-0.521935961914062
4.83920478314315,-0.028730419921875,9.87847604980469,-0.512359155273437
4.84123951122473,0.0143652099609375,9.93593688964844,-0.507570751953125
4.84335029757457,-0.0143652099609375,9.90720646972656,-0.512359155273437
4.8454610839244,0.0383072265625,9.91199487304687,-0.507570751953125
4.84757187027424,0.0335188232421875,9.95030209960937,-0.512359155273437
4.84965220225123,0.028730419921875,9.93593688964844,-0.588973608398437
4.85173253422821,0.0383072265625,9.96466730957031,-0.521935961914062
4.8538128662052,0.076614453125,9.97903251953125,-0.55545478515625
4.85585842279158,0.067037646484375,9.97903251953125,-0.521935961914062
4.85790397937797,0.067037646484375,9.97424411621094,-0.536301171875
4.85994953596435,0.0718260498046875,10.0221281494141,-0.531512768554687
4.86199882253118,0.105344873046875,9.99339772949219,-0.51714755859375
4.86404810909801,0.100556469726563,10.0077629394531,-0.550666381835937
4.86609739566484,0.067037646484375,10.0556469726563,-0.588973608398437
4.86814665521344,0.129286889648437,10.0125513427734,-0.6512228515625
4.87019591476205,0.0622492431640625,10.0125513427734,-0.588973608398437
4.87224517431065,0.086191259765625,10.0029745361328,-0.603338818359375
4.87433727864006,0.0622492431640625,10.0221281494141,-0.603338818359375
4.87642938296947,0.067037646484375,10.0700121826172,-0.5746083984375
4.87852148729888,0.076614453125,10.0556469726563,-0.612915625
4.88059357828193,0.0622492431640625,10.0652237792969,-0.603338818359375
4.88266566926497,0.0526724365234375,10.0891657958984,-0.646434448242187
4.88473776024802,0.05746083984375,10.0556469726563,-0.675164868164063
4.88677628862259,0.0526724365234375,10.0652237792969,-0.67037646484375
4.88881481699716,0.0239420166015625,10.0173397460938,-0.718260498046875
4.89085334537174,0.0143652099609375,10.0508585693359,-0.675164868164063
4.89289758338172,0.047884033203125,10.0939541992188,-0.7278373046875
4.8949418213917,0.028730419921875,10.0508585693359,-0.718260498046875
4.89698605940168,0.0239420166015625,10.0508585693359,-0.775721337890625
4.89903015667816,0.009576806640625,10.0221281494141,-0.713472094726562
4.90107425395464,0.0239420166015625,10.0604353759766,-0.74699091796875
4.90311835123111,0.0143652099609375,10.0460701660156,-0.790086547851562
4.9051983357146,-0.047884033203125,10.1178962158203,-0.7278373046875
4.90727832019809,-0.009576806640625,10.1562034423828,-0.723048901367187
4.90935830468158,0.0430956298828125,9.97903251953125,-0.7278373046875
4.91141527576445,0.009576806640625,9.93593688964844,-0.842758984375
4.91347224684733,0.0,10.0173397460938,-0.814028564453125
4.91552921793021,0.0239420166015625,10.0125513427734,-0.818816967773437
4.91755331602049,0.0430956298828125,10.0077629394531,-0.8044517578125
4.91957741411077,0.009576806640625,10.0508585693359,-0.74699091796875
4.92160151220105,-0.0239420166015625,10.0269165527344,-0.718260498046875
4.92361534862681,0.0335188232421875,10.0460701660156,-0.780509741210937
4.92562918505257,0.0047884033203125,10.0269165527344,-0.775721337890625
4.92764302147833,-0.0047884033203125,10.0221281494141,-0.713472094726562
4.92965667132643,0.047884033203125,10.036493359375,-0.732625708007812
4.93167032117452,-0.0047884033203125,10.0508585693359,-0.737414111328125
4.93368397102262,0.0239420166015625,9.99339772949219,-0.794874951171875
4.93576630842498,0.0383072265625,9.9981861328125,-0.78529814453125
4.93784864582735,0.0,10.036493359375,-0.689530078125
4.93993098322971,0.0239420166015625,10.0604353759766,-0.737414111328125
4.94199713839466,0.0239420166015625,10.0221281494141,-0.679953271484375
4.9440632935596,0.028730419921875,9.97424411621094,-0.775721337890625
4.94612944872455,0.0622492431640625,10.0029745361328,-0.756567724609375
4.94817346738775,0.01915361328125,9.97424411621094,-0.7278373046875
4.95021748605096,0.067037646484375,9.98382092285156,-0.770932934570312
4.95226150471416,0.0047884033203125,9.97424411621094,-0.675164868164063
4.95430740418247,0.0718260498046875,9.9981861328125,-0.751779321289062
4.95635330365078,0.01915361328125,9.99339772949219,-0.756567724609375
4.95839920311909,0.0335188232421875,10.0077629394531,-0.675164868164063
4.96045245914123,0.05746083984375,9.99339772949219,-0.737414111328125
4.96250571516337,0.0383072265625,9.98382092285156,-0.703895288085937
4.96455897118551,0.028730419921875,9.98860932617187,-0.689530078125
4.96666030636345,0.0047884033203125,9.97424411621094,-0.617704028320312
4.96876164154139,0.0143652099609375,9.96466730957031,-0.675164868164063
4.97086297671933,0.05746083984375,9.96466730957031,-0.622492431640625
4.97288955858784,0.0383072265625,9.97424411621094,-0.6512228515625
4.97491614045634,0.01915361328125,9.98382092285156,-0.608127221679687
4.97694272232485,-0.028730419921875,9.94551369628906,-0.565031591796875
4.97889318798241,0.009576806640625,9.86889924316406,-0.5746083984375
4.98084365363997,0.0143652099609375,10.0125513427734,-0.646434448242187
4.98279411929752,0.0383072265625,9.98382092285156,-0.512359155273437
4.98474198512868,0.0,9.90720646972656,-0.588973608398437
4.98668985095984,0.0335188232421875,9.93114848632812,-0.579396801757812
4.988637716791,-0.0239420166015625,9.87847604980469,-0.536301171875
4.99058332486394,-0.0143652099609375,9.90720646972656,-0.526724365234375
4.99252893293688,0.009576806640625,9.94072529296875,-0.507570751953125
4.99447454100982,-0.009576806640625,9.90241806640625,-0.521935961914062
4.99649722406105,0.0143652099609375,9.93593688964844,-0.507570751953125
4.99851990711227,0.028730419921875,9.883264453125,-0.51714755859375
5.00054259016349,0.009576806640625,9.82580361328125,-0.4979939453125
5.00256765109013,0.0430956298828125,9.85932243652344,-0.45968671875
5.00459271201676,0.0143652099609375,9.883264453125,-0.464475122070312
5.0066177729434,0.0622492431640625,9.87368764648437,-0.512359155273437
5.00864532990956,0.0526724365234375,9.89762966308594,-0.493205541992187
5.01067288687572,0.0526724365234375,9.87368764648437,-0.483628735351562
5.01270044384188,0.0143652099609375,9.81622680664062,-0.493205541992187
5.01472289261304,0.0718260498046875,9.80665,-0.464475122070312
5.01674534138419,0.067037646484375,9.79707319335937,-0.51714755859375
5.01876779015535,0.047884033203125,9.78749638671875,-0.507570751953125
5.0208187157603,0.0430956298828125,9.7683427734375,-0.483628735351562
5.02286964136525,0.01915361328125,9.730035546875,-0.474051928710937
5.0249205669702,0.0335188232421875,9.75397756347656,-0.359130249023437
5.02695443339815,0.0,9.68215151367187,-0.397437475585937
5.0289882998261,0.009576806640625,9.70609353027344,-0.36391865234375
5.03102216625405,0.028730419921875,9.68215151367187,-0.387860668945312
5.03305403127141,0.0047884033203125,9.68215151367187,-0.359130249023437
5.03508589628878,-0.01915361328125,9.67257470703125,-0.373495458984375
5.03711776130615,-0.0526724365234375,9.63426748046875,-0.368707055664062
5.03908101304224,-0.047884033203125,9.67257470703125,-0.359130249023437
5.04104426477833,-0.05746083984375,9.65342109375,-0.354341845703125
5.04300751651442,-0.0430956298828125,9.64863269042969,-0.320823022460937
5.04495310896232,-0.0718260498046875,9.70609353027344,-0.349553442382812
5.04689870141021,-0.028730419921875,9.73961235351562,-0.330399829101562
5.04884429385811,-0.0622492431640625,9.78270798339844,-0.296881005859375
5.05085094750397,-0.0814028564453125,9.79707319335937,-0.277727392578125
5.05285760114983,-0.1149216796875,9.84016882324219,-0.234631762695312
5.05486425479569,-0.0909796630859375,9.92636008300781,-0.225054956054687
5.05687556349793,-0.143652099609375,9.98860932617187,-0.225054956054687
5.05888687220018,0.119710083007812,10.2807019287109,-0.15322890625
5.06089818090243,0.138863696289063,10.3668931884766,-0.0814028564453125
5.06291134702656,0.0,10.2376062988281,0.009576806640625
5.06492451315069,0.3447650390625,10.4339308349609,0.1149216796875
5.06693767927482,0.876277807617187,10.5680061279297,0.201112939453125
5.06896707065937,1.48919343261719,10.4818148681641,0.047884033203125
5.07099646204392,2.11647426757812,10.5296989013672,0.330399829101562
5.07302585342848,0.962469067382812,10.2615483154297,-0.09576806640625
5.07505710223487,0.536301171875,10.9941740234375,0.531512768554687
5.07708835104127,0.215478149414062,10.5823713378906,0.383072265625
5.07911959984767,0.076614453125,10.1945106689453,0.292092602539062
5.08116740939083,-0.0622492431640625,10.1178962158203,0.277727392578125
5.083215218934,-0.158017309570312,9.97903251953125,-0.05746083984375
5.08526302847716,-0.296881005859375,9.93593688964844,-0.086191259765625
5.08730242865074,-0.450109912109375,10.1131078125,-0.186747729492187
5.08934182882432,-0.751779321289062,10.1370498291016,-0.272938989257812
5.0913812289979,-0.689530078125,10.0939541992188,-0.378283862304687
5.09342191552134,-0.55545478515625,10.2184526855469,-0.40222587890625
5.09546260204478,-0.51714755859375,10.2471831054687,-0.335188232421875
5.09750328856822,-0.450109912109375,10.2807019287109,-0.32561142578125
5.09954549277828,-0.368707055664062,10.2471831054687,-0.378283862304687
5.10158769698833,-0.162805712890625,10.2567599121094,-0.47884033203125
5.10362990119839,0.01915361328125,10.2950671386719,-0.469263525390625
5.10567645545186,0.138863696289063,10.1322614257812,-0.569819995117188
5.10772300970532,0.234631762695312,10.1131078125,-0.694318481445312
5.10976956395879,0.138863696289063,10.2998555419922,-0.541089575195312
5.11183600390019,0.0335188232421875,10.3812583984375,-0.430956298828125
5.11390244384159,-0.407014282226562,10.3573163818359,-0.21068974609375
5.11596888378298,-0.2681505859375,10.7260234375,-0.129286889648437
5.11800233007205,0.330399829101562,11.1282493164062,-0.4979939453125
5.12003577636113,0.502782348632812,11.3389390625,-0.263362182617187
5.1220692226502,0.143652099609375,11.1378261230469,0.124498486328125
5.12410206694275,-0.0526724365234375,10.5632177246094,0.129286889648437
5.12613491123531,-0.215478149414062,10.419565625,-0.124498486328125
5.12816775552787,-0.100556469726563,10.7308118408203,0.0
5.13020031347059,-0.1915361328125,11.0851536865234,0.138863696289063
5.1322328714133,-0.0718260498046875,10.87925234375,0.119710083007812
5.13426542935602,0.13407529296875,10.7116582275391,-0.129286889648437
5.13629797937772,0.086191259765625,10.6063133544922,-0.129286889648437
5.13833052939942,0.105344873046875,10.6541973876953,-0.129286889648437
5.14036307942112,0.258573779296875,10.6206785644531,-0.110133276367187
5.14238505837076,0.186747729492187,10.5249104980469,-0.09576806640625
5.14440703732041,0.201112939453125,10.4291424316406,-0.239420166015625
5.14642901627005,0.201112939453125,10.3094323486328,-0.320823022460937
5.14837536783255,0.215478149414062,10.3333743652344,-0.354341845703125
5.15032171939505,0.119710083007812,10.2950671386719,-0.387860668945312
5.15226807095755,0.086191259765625,10.3094323486328,-0.339976635742188
5.15421397357254,-0.0239420166015625,10.2998555419922,-0.335188232421875
5.15615987618754,-0.0335188232421875,10.2280294921875,-0.359130249023437
5.15810577880254,-0.110133276367187,10.1466266357422,-0.392649072265625
5.16005158300175,-0.110133276367187,10.0460701660156,-0.359130249023437
5.16199738720097,-0.15322890625,10.0173397460938,-0.430956298828125
5.16394319140019,-0.119710083007812,10.0652237792969,-0.373495458984375
5.16588831113759,-0.138863696289063,10.0604353759766,-0.354341845703125
5.16783343087499,-0.0814028564453125,10.0987426025391,-0.368707055664062
5.16977855061239,-0.17238251953125,10.1035310058594,-0.368707055664062
5.17178521288452,-0.119710083007812,10.2184526855469,-0.296881005859375
5.17379187515666,0.009576806640625,10.1418382324219,-0.086191259765625
5.17579853742879,-0.01915361328125,10.0412817626953,-0.129286889648437
5.17782958083159,-0.047884033203125,10.0029745361328,-0.110133276367187
5.17986062423439,-0.0047884033203125,10.0173397460938,-0.138863696289063
5.18189166763719,0.138863696289063,9.96945571289062,-0.086191259765625
5.18391947693625,0.1149216796875,9.95509050292969,-0.124498486328125
5.18594728623532,0.0526724365234375,9.85453403320312,-0.234631762695312
5.18797509553438,-0.0622492431640625,9.81143840332031,-0.244208569335937
5.18998093933862,-0.296881005859375,9.80665,-0.24899697265625
5.19198678314285,-0.426167895507812,9.80665,-0.272938989257812
5.19399262694708,-0.51714755859375,9.65342109375,-0.24899697265625
5.1959829525764,-0.450109912109375,9.52892260742187,-0.0909796630859375
5.19797327820572,-0.435744702148437,9.54807622070313,-0.086191259765625
5.19996360383504,-0.330399829101562,9.51934580078125,-0.0335188232421875
5.20198651963365,-0.253785375976562,9.57201823730469,-0.05746083984375
5.20400943543226,-0.196324536132812,9.59596025390625,0.0526724365234375
5.20603235123087,-0.162805712890625,9.51934580078125,-0.01915361328125
5.20805608799302,-0.0143652099609375,9.51455739746094,0.0383072265625
5.21007982475517,-0.0143652099609375,9.55765302734375,0.09576806640625
5.21210356151732,0.0718260498046875,9.60553706054687,-0.009576806640625
5.21412632898694,0.32561142578125,9.6917283203125,0.009576806640625
5.21614909645655,0.397437475585937,9.73482395019531,0.0383072265625
5.21817186392616,0.507570751953125,9.71088193359375,0.0047884033203125
5.2201935487135,0.373495458984375,9.65820949707031,-0.129286889648437
5.22221523350083,0.316034619140625,9.68693991699219,-0.0718260498046875
5.22423691828817,0.24899697265625,9.71567033691406,-0.05746083984375
5.22619876344876,0.205901342773437,9.6917283203125,-0.0622492431640625
5.22816060860934,0.148440502929687,9.68215151367187,-0.0335188232421875
5.23012245376992,0.0718260498046875,9.70609353027344,0.0335188232421875
5.23215263107026,-0.0143652099609375,9.68693991699219,-0.0239420166015625
5.2341828083706,-0.047884033203125,9.74918916015625,0.0526724365234375
5.23621298567093,-0.028730419921875,9.71088193359375,-0.01915361328125
5.23824581813619,0.067037646484375,9.60074865722656,-0.0526724365234375
5.24027865060145,0.119710083007812,9.61990227050781,-0.0239420166015625
5.24231148306671,0.13407529296875,9.60074865722656,-0.129286889648437
5.24434599858322,0.143652099609375,9.576806640625,-0.105344873046875
5.24638051409973,0.17238251953125,9.62947907714844,-0.047884033203125
5.24841502961624,0.167594116210937,9.7683427734375,0.0143652099609375
5.25045169237664,0.17238251953125,9.85932243652344,-0.0622492431640625
5.25248835513704,0.196324536132812,9.94072529296875,-0.0143652099609375
5.25452501789744,0.129286889648437,9.91678327636719,-0.0526724365234375
5.25649735166481,0.138863696289063,9.94551369628906,-0.0430956298828125
5.25846968543218,0.143652099609375,9.99339772949219,-0.0047884033203125
5.26044201919956,0.167594116210937,10.0317049560547,0.105344873046875
5.26247039170391,0.01915361328125,10.0125513427734,0.110133276367187
5.26449876420827,-0.0814028564453125,10.0843773925781,0.15322890625
5.26652713671263,-0.1149216796875,10.1035310058594,0.201112939453125
5.26855601171261,-0.0430956298828125,10.1370498291016,0.215478149414062
5.2705848867126,-0.0622492431640625,10.1609918457031,0.234631762695312
5.27261376171259,-0.047884033203125,10.1945106689453,0.225054956054687
5.27464276518485,-0.0143652099609375,10.2088758789062,0.277727392578125
5.2766717686571,0.0047884033203125,10.2232410888672,0.201112939453125
5.27870077212935,0.0047884033203125,10.189722265625,0.2681505859375
5.28072986631336,0.0143652099609375,10.1849338623047,0.32561142578125
5.28275896049737,-0.0143652099609375,10.1801454589844,0.354341845703125
5.28478805468137,-0.05746083984375,10.1562034423828,0.349553442382812
5.28674980316229,0.028730419921875,10.1753570556641,0.3064578125
5.28871155164321,0.028730419921875,10.2088758789062,0.32561142578125
5.29067330012413,0.0335188232421875,10.1753570556641,0.36391865234375
5.29270175628729,0.047884033203125,10.0891657958984,0.349553442382812
5.29473021245046,0.067037646484375,10.0748005859375,0.311246215820312
5.29675866861362,0.05746083984375,10.0173397460938,0.339976635742188
5.29879285557107,0.067037646484375,9.94551369628906,0.205901342773437
5.30082704252853,0.129286889648437,9.95030209960937,0.24899697265625
5.30286122948598,0.129286889648437,9.94551369628906,0.239420166015625
5.30489599413443,0.148440502929687,9.9215716796875,0.220266552734375
5.30693075878287,0.138863696289063,9.92636008300781,0.186747729492187
5.30896552343131,0.124498486328125,9.91678327636719,0.1915361328125
5.31100038530197,0.1915361328125,9.89284125976562,0.129286889648437
5.31303524717263,0.0909796630859375,9.84016882324219,0.186747729492187
5.31507010904329,0.119710083007812,9.91678327636719,0.186747729492187
5.31703742707714,0.100556469726563,9.98860932617187,0.229843359375
5.31900474511099,0.124498486328125,10.0173397460938,0.215478149414062
5.32097206314484,0.047884033203125,10.0604353759766,0.205901342773437
5.32307279502421,0.047884033203125,10.0412817626953,0.215478149414062
5.32517352690358,0.05746083984375,10.0508585693359,0.0909796630859375
5.32727425878295,0.0430956298828125,10.1131078125,0.148440502929687
5.32937546288451,0.0526724365234375,10.1849338623047,0.196324536132812
5.33147666698608,0.01915361328125,10.1705686523437,0.196324536132812
5.33357787108764,-0.0335188232421875,10.2280294921875,0.143652099609375
5.33567954133503,-0.0383072265625,10.2807019287109,0.15322890625
5.33778121158241,-0.0430956298828125,10.3716815917969,0.177170922851562
5.33988288182979,-0.0622492431640625,10.4004120117187,0.196324536132812
5.34198491600947,-0.0622492431640625,10.4291424316406,0.196324536132812
5.34408695018916,-0.129286889648437,10.4387192382812,0.1915361328125
5.34618898436884,-0.158017309570312,10.4339308349609,0.21068974609375
5.34823004155199,-0.1149216796875,10.4435076416016,0.234631762695312
5.35027109873514,-0.09576806640625,10.5057568847656,0.282515795898438
5.3523121559183,-0.13407529296875,10.5009684814453,0.2681505859375
5.35435201865702,-0.124498486328125,10.4435076416016,0.253785375976562
5.35639188139574,-0.17238251953125,10.4722380615234,0.292092602539062
5.35843174413446,-0.1915361328125,10.5009684814453,0.311246215820312
5.36046863747212,-0.17238251953125,10.5344873046875,0.349553442382812
5.36250553080977,-0.138863696289063,10.57279453125,0.3447650390625
5.36454242414743,-0.124498486328125,10.6206785644531,0.383072265625
5.36969968290936,-0.0622492431640625,10.7356002441406,0.627280834960937
5.37485694167128,-0.067037646484375,10.802637890625,0.713472094726562
5.38001420043321,-0.086191259765625,10.7786958740234,0.737414111328125
5.38204966359509,-0.0047884033203125,10.6781394042969,0.699106884765625
5.38408512675697,-0.0335188232421875,10.7403886474609,0.6512228515625
5.38612058991885,-0.0239420166015625,10.7834842773437,0.790086547851562
5.38815279293535,-0.0430956298828125,10.7930610839844,0.837970581054687
5.39018499595185,-0.01915361328125,10.7978494873047,0.74699091796875
5.39221719896835,0.047884033203125,10.802637890625,0.76614453125
5.39424087811331,0.0143652099609375,10.7786958740234,0.818816967773437
5.39626455725827,0.0239420166015625,10.8553103271484,0.818816967773437
5.39828823640323,0.0239420166015625,10.8409451171875,0.924161840820312
5.40030501613414,-0.0047884033203125,10.8313683105469,0.905008227539062
5.40232179586504,0.0622492431640625,10.8361567138672,0.890643017578125
5.40433857559594,-0.0047884033203125,10.7403886474609,0.842758984375
5.40639391788111,0.0814028564453125,10.9031943603516,0.794874951171875
5.40844926016628,0.1149216796875,10.8265799072266,0.871489404296875
5.41050460245145,0.119710083007812,10.7547538574219,1.00556469726562
5.41254042395754,0.15322890625,10.6637741943359,0.890643017578125
5.41457624546363,0.162805712890625,10.6685625976562,0.885854614257812
5.41661206696972,0.201112939453125,10.7068698242187,0.928950244140625
5.41864749079785,0.201112939453125,10.8553103271484,0.885854614257812
5.42068291462598,0.215478149414062,10.8648871337891,0.86191259765625
5.4227183384541,0.2681505859375,10.8313683105469,0.967257470703125
5.42475365887513,0.311246215820312,10.7978494873047,0.713472094726562
5.42678897929615,0.253785375976562,10.8553103271484,0.737414111328125
5.42882429971718,0.339976635742188,10.6925046142578,0.837970581054687
5.43085962637734,0.426167895507812,10.5249104980469,0.78529814453125
5.43289495303749,0.426167895507812,10.4243540283203,0.780509741210937
5.43493027969765,0.474051928710937,10.5057568847656,0.8810662109375
5.43699880443722,0.493205541992187,10.4722380615234,0.948103857421875
5.43906732917679,0.521935961914062,10.3573163818359,0.852335791015625
5.44113585391636,0.5746083984375,10.3860468017578,0.9193734375
5.44317265757307,0.560243188476563,10.3860468017578,0.86191259765625
5.44520946122977,0.565031591796875,10.3860468017578,0.86191259765625
5.44724626488647,0.656011254882812,10.2615483154297,0.995987890625
5.44928363663126,0.6512228515625,10.2950671386719,0.842758984375
5.45132100837606,0.70868369140625,10.2280294921875,0.93852705078125
5.45335838012085,0.775721337890625,10.2136642822266,0.967257470703125
5.45539624351062,0.809240161132812,10.0748005859375,0.890643017578125
5.45743410690039,0.8044517578125,10.1035310058594,0.866701000976562
5.45947197029017,0.972045874023437,9.8449572265625,0.972045874023437
5.46150993247549,0.914585034179687,9.75876596679687,0.909796630859375
5.46354789466081,1.01992990722656,9.65820949707031,0.933738647460937
5.46558585684613,1.06302553710937,9.63905588378906,0.895431420898437
5.46765096139256,1.08696755371094,9.45709655761719,1.05823713378906
5.469716065939,1.04866032714844,9.48103857421875,0.986411083984375
5.47178117048543,1.1109095703125,9.52892260742187,1.06302553710937
5.47381503707616,1.09654436035156,9.44751975097656,1.07739074707031
5.47584890366689,1.1109095703125,9.39963571777344,0.9193734375
5.47788277025762,1.12527478027344,9.3086560546875,1.03908352050781
5.47992022973026,1.12527478027344,9.31344445800781,1.04866032714844
5.4819576892029,1.13963999023438,9.23683000488281,1.01514150390625
5.48399514867555,1.16358200683594,9.21288798828125,1.19710083007812
5.48603288001235,1.13963999023438,9.09317790527344,1.23061965332031
5.48807061134916,1.10133276367187,8.93516059570312,1.20188923339844
5.49010834268597,1.09175595703125,8.91121857910156,1.05823713378906
5.49214709013605,1.13006318359375,8.87291135253906,1.0342951171875
5.49418583758613,1.05823713378906,8.77714328613281,1.05344873046875
5.4962245850362,1.06781394042969,8.71010563964844,0.895431420898437
5.49828859062431,0.991199487304687,8.61433757324219,0.833182177734375
5.50035259621241,0.93852705078125,8.58081875,0.852335791015625
5.50241660180052,0.890643017578125,8.51378110351562,0.890643017578125
5.50445271426796,0.871489404296875,8.35576379394531,0.8810662109375
5.50648882673541,0.732625708007812,8.30787976074219,0.924161840820312
5.50852493920286,0.751779321289062,8.25520732421875,1.01992990722656
5.51056096106699,0.646434448242187,8.22168850097656,1.10612116699219
5.51259698293112,0.63206923828125,8.05888278808594,1.06781394042969
5.51463300479526,0.584185205078125,8.12113203125,1.08217915039062
5.51668324399884,0.550666381835937,8.13549724121094,1.13485158691406
5.51873348320242,0.4979939453125,8.11155522460937,1.14442839355469
5.52078372240601,0.339976635742188,8.01578715820312,1.25935007324219
5.5228342529507,0.339976635742188,7.95353791503906,1.33596452636719
5.52488478349539,0.28730419921875,7.90565388183594,1.3407529296875
5.52693531404009,0.234631762695312,7.80509741210937,1.44609780273437
5.52899673249711,0.17238251953125,7.69017573242187,1.52750065917969
5.53105815095413,0.0718260498046875,7.64708010253906,1.68072956542969
5.53311956941116,0.067037646484375,7.55131203613281,1.78128603515625
5.53515181197842,-0.0526724365234375,7.48427438964844,1.89141931152344
5.53718405454568,-0.119710083007812,7.41244833984375,2.00155258789062
5.53921629711294,-0.21068974609375,7.3932947265625,2.05901342773437
5.54124751933515,-0.301669409179687,7.32146867675781,2.10210905761719
5.54327874155736,-0.32561142578125,7.27358464355469,2.29364519042969
5.54530996377957,-0.474051928710937,7.06768330078125,2.24576115722656
5.54734045634683,-0.464475122070312,6.971915234375,2.27927998046875
5.54937094891409,-0.521935961914062,6.91445439453125,2.26491477050781
5.55140144148135,-0.598550415039062,6.86657036132813,2.12126267089844
5.5534319642678,-0.6512228515625,6.80432111816406,2.21224233398438
5.55546248705425,-0.7278373046875,6.80910952148437,2.17872351074219
5.5574930098407,-0.751779321289062,6.76122548828125,2.14041628417969
5.55956177155946,-0.76614453125,6.73249506835937,2.00155258789062
5.56163053327822,-0.794874951171875,6.66066901855469,1.98239897460937
5.56369929499698,-0.814028564453125,6.70855305175781,1.90099611816406
5.56573657906815,-0.799663354492188,6.69418784179687,1.90099611816406
5.56777386313932,-0.837970581054687,6.50265170898437,1.85311208496094
5.56981114721049,-0.684741674804688,6.46434448242187,1.79086284179687
5.57184747967576,-0.93852705078125,6.38294162597656,1.66636435546875
5.57388381214103,-0.814028564453125,6.58405456542969,1.84832368164062
5.5759201446063,-0.76614453125,6.64630380859375,1.90578452148437
5.57795772929595,-0.82360537109375,6.61757338867187,1.82438166503906
5.57999531398561,-0.809240161132812,6.4356140625,1.74297880859375
5.58203289867527,-0.847547387695312,6.44997927246094,1.74297880859375
5.58407255085626,-0.799663354492188,6.4356140625,1.762132421875
5.58611220303726,-0.74699091796875,6.43082565917969,1.83395847167969
5.58815185521826,-0.694318481445312,6.33026918945312,1.91057292480469
5.5902152386818,-0.751779321289062,6.29196196289062,1.84353527832031
5.59227862214535,-0.742202514648437,6.44040246582031,1.915361328125
5.59434200560889,-0.67037646484375,6.45955607910156,2.00155258789062
5.59637905270091,-0.665588061523437,6.55532414550781,1.67115275878906
5.59841609979293,-0.636857641601562,6.41167204589844,1.78607443847656
5.60045314688494,-0.627280834960937,6.41646044921875,1.77170922851562
5.60249058785716,-0.531512768554687,6.19619389648437,1.81959326171875
5.60452802882937,-0.488417138671875,6.28717355957031,1.56101948242187
5.60656546980158,-0.450109912109375,6.34463439941406,1.61369191894531
5.60860272256851,-0.430956298828125,6.31590397949219,1.60411511230469
5.61063997533544,-0.373495458984375,6.25365473632812,1.64242233886719
5.61267722810237,-0.320823022460937,6.12436784667969,1.58974990234375
5.61471442026817,-0.201112939453125,6.25365473632812,1.46046301269531
5.61675161243397,-0.368707055664062,6.22971271972656,1.25935007324219
5.61878880459977,-0.167594116210937,6.25844313964844,1.56580788574219
5.62084809984717,-0.186747729492187,6.14830986328125,1.77649763183594
5.62290739509458,-0.143652099609375,6.31590397949219,1.82438166503906
5.62496669034198,0.0430956298828125,6.09563742675781,1.84832368164062
5.62698909550691,-0.01915361328125,6.2440779296875,2.05901342773437
5.62901150067184,-0.0430956298828125,6.205770703125,2.3367408203125
5.63103390583677,0.13407529296875,6.33026918945312,2.43250888671875
5.63305385972131,0.335188232421875,6.45476767578125,2.34152922363281
5.63507381360586,0.009576806640625,6.37336481933594,2.17872351074219
5.6370937674904,0.09576806640625,6.6271501953125,2.30801040039062
5.63910976005767,0.177170922851562,6.54574733886719,2.42772048339844
5.64112575262495,0.2681505859375,6.49786330566406,2.30801040039062
5.64314174519222,0.244208569335937,6.45955607910156,2.068590234375
5.6451571919153,0.215478149414062,6.59841977539062,2.05901342773437
5.64717263863838,0.124498486328125,6.52659372558594,2.18830031738281
5.64918808536146,0.148440502929687,6.48828649902344,2.48039291992187
5.65124253338663,0.21068974609375,6.42603725585937,2.43250888671875
5.65329698141179,0.282515795898438,6.50744011230469,2.375048046875
5.65535142943696,0.296881005859375,6.35421120605469,2.36068283691406
5.65737995102986,0.296881005859375,6.19140549316406,2.53785375976562
5.65940847262275,0.44053310546875,6.02381137695312,2.61446821289062
5.66143699421565,0.215478149414062,6.05733020019531,2.70544787597656
5.66347256311756,0.36391865234375,6.23450112304687,2.82036955566406
5.66550813201947,0.339976635742188,6.27280834960937,2.81558115234375
5.66754370092139,0.47884033203125,6.21534750976562,2.65756384277344
5.66957784648343,0.263362182617187,6.19619389648437,2.66714064941406
5.67161199204548,0.383072265625,6.25365473632812,2.66235224609375
5.67364613760753,0.181959326171875,6.29675036621094,2.84431157226562
5.67567710359058,0.430956298828125,6.11479104003906,3.09330854492187
5.67770806957363,0.105344873046875,5.98550415039062,3.05500131835937
5.67973903555668,0.411802685546875,5.99986936035156,3.13640417480469
5.681790485752,0.177170922851562,6.052541796875,3.05978972167969
5.68384193594733,0.181959326171875,6.12436784667969,3.08852014160156
5.68589338614265,0.244208569335937,6.22971271972656,3.16034619140625
5.68792643540481,0.105344873046875,6.358999609375,2.94486804199219
5.68995948466697,0.1915361328125,6.33505759277344,3.05021291503906
5.69199253392912,0.253785375976562,6.22971271972656,3.18428820800781
5.69402523830197,0.301669409179687,6.17225187988281,3.0262708984375
5.69605794267481,0.177170922851562,6.29675036621094,3.09809694824219
5.69809064704765,0.469263525390625,6.40688364257812,3.36145913085937
5.70012304814355,0.387860668945312,6.41646044921875,3.34230551757812
5.70215544923946,0.416591088867187,6.44040246582031,3.32315190429687
5.70418785033536,0.928950244140625,6.45476767578125,3.50511123046875
5.70622008275723,0.751779321289062,6.41646044921875,3.600879296875
5.7082523151791,0.885854614257812,6.38773002929687,3.76847341308594
5.71028454760096,0.97683427734375,6.52180532226562,3.68707055664062
5.71235340496859,0.948103857421875,6.73249506835937,3.68228215332031
5.71442226233622,1.00077629394531,6.87135876464844,3.85466467285156
5.71649111970385,1.13006318359375,6.82826313476562,3.69664736328125
5.7185251677724,1.10612116699219,6.91445439453125,3.58651408691406
5.72055921584096,1.18273562011719,6.99585725097656,3.43807358398437
5.72259326390952,1.17315881347656,7.11556733398437,3.30878669433594
5.7246241894195,1.17794721679687,7.25921943359375,3.44286198730469
5.72665511492949,1.43173259277344,7.3166802734375,3.38540114746094
5.72868604043947,1.24498486328125,7.32146867675781,3.57693728027344
5.7307165250315,1.51313544921875,7.32146867675781,3.85945307617187
5.73274700962353,1.51313544921875,7.33583388671875,3.96479794921875
5.73477749421556,1.48440502929687,7.53215842285156,4.18506450195312
5.73680854185013,1.66636435546875,7.58004245605469,4.29998618164062
5.73883958948469,1.76692082519531,7.69017573242187,4.28083256835937
5.74087063711926,1.80522805175781,7.80509741210937,4.367023828125
5.74294186769652,1.82917006835937,7.93438430175781,4.33829340820312
5.74501309827377,1.86747729492187,7.94396110839844,4.56813676757812
5.74708432885103,1.8770541015625,7.98705673828125,4.61123239746094
5.74913361075208,1.95845695800781,7.98705673828125,4.75009609375
5.75118289265312,1.80522805175781,8.08761320800781,4.95599743652344
5.75323217455417,1.75255561523437,8.27914934082031,5.13795676269531
5.75528261075209,1.69030637207031,8.350975390625,5.133168359375
5.75733304695001,1.71903679199219,8.42280144042969,5.25766684570312
5.75938348314793,1.58017309570312,8.504204296875,5.23372482910156
5.76143396421346,1.455674609375,8.62870278320312,5.31991608886719
5.76348444527899,1.39821376953125,8.53293471679688,5.48751020507812
5.76553492634451,1.31202250976562,8.60476076660156,5.592855078125
5.76758538305025,1.21625444335937,8.68616362304688,5.77481440429687
5.76963583975599,1.12527478027344,8.82502731933594,5.78917961425781
5.77168629646172,0.93852705078125,9.05008227539062,5.69341154785156
5.77376405042221,0.914585034179687,9.08838950195312,5.7843912109375
5.77584180438269,0.770932934570312,9.27992563476562,5.88015927734375
5.77791955834317,0.833182177734375,9.3086560546875,5.97592734375
5.77996140833235,0.608127221679687,9.21767639160156,5.99986936035156
5.78200325832152,0.359130249023437,9.2320416015625,5.76523759765625
5.78404510831069,0.349553442382812,9.39963571777344,5.75566079101562
5.78608469093873,0.32561142578125,9.51455739746094,6.07648381347656
5.78812427356676,0.244208569335937,9.65342109375,6.22013591308594
5.79016385619479,0.387860668945312,9.71088193359375,6.11957944335937
5.79220190008584,0.181959326171875,9.42836613769531,6.14352145996094
5.79423994397689,0.186747729492187,9.55286462402344,6.47870969238281
5.79627798786794,0.4213794921875,9.71088193359375,6.70855305175781
5.79828931452808,0.047884033203125,9.73961235351562,6.59363137207031
5.80030064118823,-0.416591088867187,9.82580361328125,6.01902297363281
5.80231196784837,0.110133276367187,9.52413420410156,6.33984599609375
5.80434179130757,0.009576806640625,9.60074865722656,6.34463439941406
5.80637161476678,0.0718260498046875,9.73482395019531,6.56011254882812
5.80840143822599,0.1915361328125,9.70609353027344,6.71812985839844
5.81043120943912,-0.009576806640625,9.75397756347656,6.39251843261719
5.81246098065225,0.258573779296875,9.64863269042969,6.70855305175781
5.81449075186538,0.158017309570312,9.67736311035156,6.54574733886719
5.81651883807414,0.181959326171875,9.80186159667969,6.512228515625
5.8185469242829,0.119710083007812,9.7683427734375,6.46434448242187
5.82057501049167,0.196324536132812,9.883264453125,6.3973068359375
5.82260060657459,0.44053310546875,9.74918916015625,6.67503422851562
5.82462620265752,0.761356127929687,9.67257470703125,6.72291826171875
5.82665179874044,-0.277727392578125,9.64384428710937,5.72214196777344
5.82864517672438,0.335188232421875,9.96945571289062,6.19140549316406
5.83063855470833,0.617704028320312,10.0556469726563,6.63672700195312
5.83263193269227,0.430956298828125,10.2232410888672,6.44519086914062
5.83465926011197,0.603338818359375,10.1466266357422,6.59363137207031
5.83668658753167,0.368707055664062,10.2232410888672,6.56490095214844
5.83871391495137,0.493205541992187,10.3237975585937,6.67024582519531
5.8407390019197,0.296881005859375,10.4387192382812,6.73249506835937
5.84276408888803,0.483628735351562,10.3621047851562,6.83305153808594
5.84478917585636,0.44053310546875,10.4818148681641,7.07247170410156
5.84680562713673,0.464475122070312,10.4866032714844,7.03895288085937
5.84882207841709,0.349553442382812,10.4339308349609,6.84262834472656
5.85083852969746,0.335188232421875,10.5536409179687,6.96712683105469
5.85284602503168,0.296881005859375,10.6781394042969,7.125144140625
5.85485352036591,0.24899697265625,10.7020814208984,7.12035573730469
5.85686101570013,0.201112939453125,10.9702320068359,7.19697019042969
5.85884312192845,0.339976635742188,11.0133276367187,7.25443103027344
5.86082522815677,0.086191259765625,10.2711251220703,6.75164868164062
5.86280733438508,1.33117612304687,10.8696755371094,8.0828248046875
5.86483182852572,-0.622492431640625,10.955866796875,6.54095893554687
5.86685632266637,0.641646044921875,11.03248125,7.06289489746094
5.86888081680701,1.12048637695313,10.9079827636719,7.26400783691406
5.87090438310476,0.349553442382812,11.0947304931641,7.08204851074219
5.87292794940252,0.569819995117188,11.1474029296875,7.28794985351562
5.87495151570027,0.63206923828125,11.2862666259766,7.47948598632812
5.87697372821111,0.450109912109375,11.4203419189453,7.54173522949219
5.87899594072195,0.70868369140625,11.4011883056641,7.70932934570312
5.88101815323279,0.8044517578125,11.3868230957031,7.44596716308594
5.88303740149668,0.833182177734375,11.5544172119141,7.33104548339844
5.88505664976058,0.818816967773437,11.6501852783203,7.42681354980469
5.88707589802448,1.01035310058594,11.3293622558594,7.73327136230469
5.88906622609522,1.06781394042969,11.2288057861328,7.97269152832031
5.89105655416597,0.909796630859375,11.3437274658203,7.89607707519531
5.89304688223672,0.464475122070312,11.1809217529297,7.3549875
5.89507700262518,0.74699091796875,11.4969563720703,7.60877287597656
5.89710712301364,0.665588061523437,11.3963999023437,7.81946262207031
5.89913724340209,0.565031591796875,11.3197854492187,7.65665690917969
5.90117403653358,0.70868369140625,11.3963999023437,7.83382783203125
5.90321082966506,0.76614453125,11.6166664550781,8.04930598144531
5.90524762279654,0.679953271484375,11.6549736816406,7.94396110839844
5.90728477242758,0.469263525390625,11.8273562011719,7.584830859375
5.90932192205863,0.47884033203125,11.8608750244141,7.52258161621094
5.91135907168967,0.416591088867187,11.8465098144531,7.47469758300781
5.91339623982119,0.354341845703125,11.8848170410156,7.431601953125
5.9154334079527,0.339976635742188,11.9279126708984,7.30231506347656
5.91747057608421,0.349553442382812,11.9949503173828,7.38371791992187
5.91947383069576,0.330399829101562,11.9327010742188,7.5465236328125
5.92147708530731,0.450109912109375,11.7124345214844,7.70932934570312
5.92348033991885,0.196324536132812,11.7172229248047,7.54173522949219
5.92550780373178,1.149216796875,12.2583125,8.56166513671875
5.92753526754471,-0.397437475585937,12.0476227539062,7.17302817382812
5.92956273135763,0.17238251953125,11.7842605712891,7.34062229003906
5.93159034214322,0.263362182617187,11.9374894775391,7.67581052246094
5.9336179529288,0.588973608398437,12.1146604003906,7.88171186523437
5.93564556371439,0.608127221679687,12.1625444335937,8.01099875488281
5.937672690559,0.565031591796875,12.3301385498047,7.79073220214844
5.93969981740361,0.59376201171875,12.3971761962891,7.78594379882812
5.94172694424822,0.502782348632812,12.5456166992187,7.65186850585937
5.94375742889449,0.483628735351562,12.6222311523437,7.63750329589844
5.94578791354077,0.526724365234375,12.7275760253906,7.63750329589844
5.94781839818705,0.59376201171875,12.6892687988281,7.59440766601562
5.94981823927863,0.488417138671875,12.7994020751953,7.6614453125
5.95181808037021,0.359130249023437,12.8760165283203,7.75242497558594
5.95381792146179,0.359130249023437,12.9239005615234,7.65186850585937
5.95583634735154,0.292092602539062,12.9957266113281,7.65665690917969
5.95785477324129,0.205901342773437,13.0100918212891,7.79552060546875
5.95987319913104,0.201112939453125,13.0053034179687,7.83861623535156
5.9618794011167,0.21068974609375,12.9861498046875,7.81946262207031
5.96388560310235,0.244208569335937,12.9717845947266,7.79552060546875
5.96589180508801,0.244208569335937,13.0196686279297,7.891288671875
5.9678962749231,0.296881005859375,12.9909382080078,7.98226833496094
5.96990074475819,0.502782348632812,13.02445703125,8.01099875488281
5.97190521459328,0.258573779296875,12.8568629150391,7.84819304199219
5.9739079821714,0.225054956054687,13.1872627441406,8.54729992675781
5.97591074974952,0.311246215820312,13.3021844238281,8.63827958984375
5.97791351732764,0.349553442382812,13.3069728271484,8.504204296875
5.97989627221047,0.407014282226562,13.4171061035156,8.53772312011719
5.98187902709331,0.45968671875,13.5368161865234,8.55208833007812
5.98386178197615,0.47884033203125,13.4937205566406,8.5425115234375
5.98589178940887,0.560243188476563,13.5847002197266,8.60476076660156
5.98792179684159,0.703895288085937,13.5942770263672,8.70052883300781
5.98995180427431,1.03908352050781,13.7666595458984,8.92079538574219
5.99198564151391,0.335188232421875,13.5751234130859,8.30787976074219
5.9940194787535,0.335188232421875,13.5703350097656,7.74763657226562
5.99605331599309,0.732625708007812,14.1018477783203,8.62391437988281
5.99808883237766,0.689530078125,13.7570827392578,8.1594392578125
6.00012434876222,0.828393774414062,13.7379291259766,8.16422766113281
6.00215986514678,0.799663354492188,13.94383046875,8.31745656738281
6.00419727313289,0.866701000976562,13.9534072753906,8.28393774414062
6.006234681119,0.890643017578125,13.9534072753906,8.29351455078125
6.00827208910511,0.928950244140625,14.0443869384766,8.29830295410156
6.01027771649226,0.933738647460937,14.1640970214844,8.31745656738281
6.01228334387942,0.909796630859375,14.2024042480469,8.44195505371094
6.01428897126658,0.948103857421875,14.2359230712891,8.46110866699219
6.01627672077833,1.02471831054687,14.2454998779297,8.49941589355469
6.01826447029007,0.981622680664062,14.3843635742187,8.52814631347656
6.02025221980182,1.06781394042969,14.4897084472656,8.49941589355469
6.02227493849758,1.15879360351562,14.5806881103516,8.47547387695312
6.02429765719334,1.13006318359375,14.6668793701172,8.29830295410156
6.0263203758891,0.584185205078125,14.4418244140625,7.58004245605469
6.02834170189823,0.914585034179687,14.7003981933594,7.6231380859375
6.03036302790736,0.952892260742187,15.0451632324219,7.84819304199219
6.03238435391648,0.885854614257812,14.9589719726562,7.80988581542969
6.03440342889477,0.933738647460937,14.9924907958984,7.70932934570312
6.03642250387306,0.852335791015625,15.1313544921875,7.76200178222656
6.03844157885135,0.871489404296875,15.2271225585937,7.83382783203125
6.0404308363383,0.799663354492188,15.16966171875,7.75242497558594
6.04242009382525,0.59376201171875,14.9829139892578,7.55131203613281
6.0444093513122,0.895431420898437,15.6293484375,7.95353791503906
6.04636955308086,0.76614453125,15.8687686035156,7.98705673828125
6.04832975484953,0.703895288085937,15.5000615478516,7.64229169921875
6.0502899566182,0.74699091796875,15.5383687744141,7.58961926269531
6.0523192824103,0.775721337890625,15.6437136474609,7.60398447265625
6.0543486082024,0.74699091796875,15.6772324707031,7.63750329589844
6.0563779339945,0.770932934570312,15.6532904541016,7.46033237304687
6.05841159599536,0.732625708007812,15.6915976806641,7.37414111328125
6.06044525799623,0.713472094726562,15.6485020507812,7.38371791992187
6.06247891999709,0.4213794921875,14.9733371826172,6.98149204101562
6.06451432152706,0.943315454101562,15.9022874267578,7.584830859375
6.06654972305703,0.641646044921875,16.4242233886719,7.91044228515625
6.068585124587,0.617704028320312,15.9118642333984,7.61834968261719
6.0705868088318,0.6512228515625,15.9214410400391,7.68538732910156
6.0725884930766,0.656011254882812,16.2087452392578,7.98226833496094
