timestamp,accel_x (m/s2),accel_y (m/s2),accel_z (m/s2)
0.00369967681206518,-0.387860668945312,9.95987890625,-0.723048901367187
0.00739935362413036,-0.397437475585937,9.93593688964844,-0.684741674804688
0.0110990304361955,-0.445321508789062,10.0029745361328,-0.713472094726562
0.0185076962348051,-0.411802685546875,9.95987890625,-0.790086547851562
0.0259163620334147,-0.397437475585937,9.93114848632812,-0.723048901367187
0.0333250278320243,-0.426167895507812,9.96945571289062,-0.76614453125
0.0407357483181355,-0.426167895507812,9.93593688964844,-0.770932934570312
0.0481464688042467,-0.4213794921875,9.93593688964844,-0.74699091796875
0.0555571892903579,-0.430956298828125,9.96466730957031,-0.775721337890625
0.0629728129882743,-0.430956298828125,9.95509050292969,-0.837970581054687
0.0703884366861907,-0.40222587890625,9.94551369628906,-0.780509741210937
0.077804060384107,-0.435744702148437,9.94551369628906,-0.74699091796875
0.0852215755750798,-0.407014282226562,9.95509050292969,-0.799663354492188
0.0926390907660526,-0.430956298828125,9.97903251953125,-0.737414111328125
0.100056605957025,-0.383072265625,9.95509050292969,-0.751779321289062
0.107478891438796,-0.36391865234375,9.97424411621094,-0.756567724609375
0.114901176920567,-0.411802685546875,9.96466730957031,-0.794874951171875
0.122323462402338,-0.387860668945312,9.96945571289062,-0.76614453125
0.129749846950949,-0.36391865234375,9.96466730957031,-0.780509741210937
0.13717623149956,-0.349553442382812,9.93593688964844,-0.809240161132812
0.144602616048171,-0.40222587890625,9.96466730957031,-0.751779321289062
0.155806251844612,-0.373495458984375,9.96945571289062,-0.8044517578125
0.167009887641053,-0.383072265625,9.96945571289062,-0.809240161132812
0.178213523437494,-0.354341845703125,9.97903251953125,-0.770932934570312
0.185696129448778,-0.373495458984375,9.94551369628906,-0.857124194335937
0.193178735460063,-0.387860668945312,9.90241806640625,-0.775721337890625
0.200661341471347,-0.354341845703125,9.91199487304687,-0.794874951171875
0.208145633897563,-0.335188232421875,9.95509050292969,-0.86191259765625
0.215629926323778,-0.387860668945312,9.96466730957031,-0.809240161132812
0.223114218749993,-0.392649072265625,9.93114848632812,-0.756567724609375
0.230599977213534,-0.354341845703125,9.94072529296875,-0.780509741210937
0.238085735677074,-0.373495458984375,9.96466730957031,-0.837970581054687
0.245571494140615,-0.392649072265625,9.91678327636719,-0.799663354492188
0.253058608832453,-0.407014282226562,9.93593688964844,-0.737414111328125
0.260545723524292,-0.4213794921875,9.94072529296875,-0.742202514648437
0.268032838216131,-0.392649072265625,9.95509050292969,-0.74699091796875
0.275589098090262,-0.4213794921875,9.95030209960937,-0.78529814453125
0.283145357964393,-0.416591088867187,9.96466730957031,-0.742202514648437
0.290701617838524,-0.407014282226562,9.97903251953125,-0.8044517578125
0.298260461480017,-0.435744702148437,9.90720646972656,-0.761356127929687
0.305819305121509,-0.40222587890625,9.96945571289062,-0.799663354492188
0.313378148763002,-0.407014282226562,9.9215716796875,-0.732625708007812
0.320938702365433,-0.383072265625,9.92636008300781,-0.8044517578125
0.328499255967865,-0.397437475585937,9.91199487304687,-0.775721337890625
0.336059809570296,-0.383072265625,9.93114848632812,-0.794874951171875
0.343622212782101,-0.397437475585937,9.95987890625,-0.833182177734375
0.351184615993905,-0.387860668945312,9.93114848632812,-0.8044517578125
0.35874701920571,-0.4213794921875,9.95030209960937,-0.828393774414062
0.36631067328557,-0.3447650390625,9.96945571289062,-0.790086547851562
0.37387432736543,-0.383072265625,9.96945571289062,-0.794874951171875
0.38143798144529,-0.4213794921875,9.93114848632812,-0.790086547851562
0.389070370442685,-0.4213794921875,9.95509050292969,-0.799663354492188
0.396702759440081,-0.407014282226562,9.95987890625,-0.818816967773437
0.404335148437477,-0.383072265625,9.93114848632812,-0.799663354492188
0.41197194053817,-0.359130249023437,9.95509050292969,-0.78529814453125
0.419608732638863,-0.36391865234375,9.95987890625,-0.847547387695312
0.427245524739556,-0.397437475585937,9.94551369628906,-0.76614453125
0.434887798828097,-0.378283862304687,9.97903251953125,-0.770932934570312
0.442530072916639,-0.407014282226562,9.97903251953125,-0.8044517578125
0.45017234700518,-0.411802685546875,9.95987890625,-0.852335791015625
0.457816280924452,-0.383072265625,9.95509050292969,-0.818816967773437
0.465460214843723,-0.392649072265625,9.96466730957031,-0.828393774414062
0.473104148762994,-0.383072265625,9.96945571289062,-0.82360537109375
0.480749522786432,-0.349553442382812,9.96945571289062,-0.78529814453125
0.488394896809869,-0.4213794921875,9.97424411621094,-0.833182177734375
0.496040270833307,-0.383072265625,9.95030209960937,-0.790086547851562
0.503750471788168,-0.373495458984375,9.96945571289062,-0.814028564453125
0.511460672743029,-0.392649072265625,9.95030209960937,-0.814028564453125
0.51917087369789,-0.392649072265625,9.95030209960937,-0.82360537109375
0.526884884765597,-0.392649072265625,9.97903251953125,-0.78529814453125
0.534598895833305,-0.435744702148437,9.97424411621094,-0.790086547851562
0.542312906901012,-0.44053310546875,9.94551369628906,-0.790086547851562
0.550036408962644,-0.383072265625,9.90720646972656,-0.770932934570312
0.557759911024277,-0.397437475585937,9.93114848632812,-0.761356127929687
0.565483413085909,-0.445321508789062,9.99339772949219,-0.76614453125
0.573211912434866,-0.4213794921875,9.95987890625,-0.770932934570312
0.580940411783823,-0.4213794921875,9.98860932617187,-0.751779321289062
0.58866891113278,-0.4213794921875,9.93593688964844,-0.742202514648437
0.596403029079828,-0.40222587890625,9.94551369628906,-0.809240161132812
0.604137147026875,-0.407014282226562,9.95987890625,-0.814028564453125
0.611871264973923,-0.44053310546875,9.95030209960937,-0.775721337890625
0.619661681966109,-0.411802685546875,9.93114848632812,-0.799663354492188
0.627452098958296,-0.4213794921875,9.94551369628906,-0.837970581054687
0.635242515950482,-0.40222587890625,9.94072529296875,-0.756567724609375
0.643037956488676,-0.407014282226562,9.91678327636719,-0.780509741210937
0.650833397026869,-0.411802685546875,9.95509050292969,-0.814028564453125
0.658628837565063,-0.4213794921875,9.96945571289062,-0.799663354492188
0.666426140299437,-0.426167895507812,9.93114848632812,-0.78529814453125
0.674223443033812,-0.407014282226562,9.95030209960937,-0.751779321289062
0.682020745768186,-0.4213794921875,9.9215716796875,-0.780509741210937
0.689820741861936,-0.430956298828125,9.92636008300781,-0.8044517578125
0.697620737955685,-0.416591088867187,9.97903251953125,-0.818816967773437
0.705420734049435,-0.407014282226562,9.93114848632812,-0.794874951171875
0.713222576497351,-0.407014282226562,9.94072529296875,-0.751779321289062
0.721024418945266,-0.387860668945312,9.96466730957031,-0.885854614257812
0.728826261393182,-0.407014282226562,9.92636008300781,-0.8044517578125
0.736694697808113,-0.40222587890625,9.93593688964844,-0.833182177734375
0.744563134223045,-0.3447650390625,9.93593688964844,-0.799663354492188
0.752431570637976,-0.373495458984375,9.92636008300781,-0.799663354492188
0.76030435742183,-0.392649072265625,9.91678327636719,-0.837970581054687
0.768177144205684,-0.397437475585937,9.92636008300781,-0.756567724609375
0.776049930989538,-0.407014282226562,9.95030209960937,-0.799663354492188
0.783925010959156,-0.407014282226562,9.95030209960937,-0.794874951171875
0.791800090928774,-0.411802685546875,9.93114848632812,-0.86191259765625
0.799675170898391,-0.387860668945312,9.95987890625,-0.818816967773437
0.807551761176168,-0.383072265625,9.94551369628906,-0.871489404296875
0.815428351453945,-0.392649072265625,9.94551369628906,-0.842758984375
0.823304941731722,-0.392649072265625,9.93114848632812,-0.833182177734375
0.831182947699604,-0.407014282226562,9.98382092285156,-0.799663354492188
0.839060953667486,-0.416591088867187,9.92636008300781,-0.837970581054687
0.846938959635368,-0.387860668945312,9.95987890625,-0.780509741210937
0.854887816731723,-0.383072265625,9.94072529296875,-0.847547387695312
0.862836673828077,-0.36391865234375,9.94551369628906,-0.876277807617187
0.870785530924431,-0.430956298828125,9.94551369628906,-0.790086547851562
0.878737981119743,-0.397437475585937,9.9981861328125,-0.809240161132812
0.886690431315055,-0.4213794921875,9.91678327636719,-0.837970581054687
0.894642881510366,-0.426167895507812,9.94072529296875,-0.809240161132812
0.902596664387971,-0.392649072265625,9.95030209960937,-0.82360537109375
0.910550447265575,-0.387860668945312,9.96945571289062,-0.799663354492188
0.91850423014318,-0.4213794921875,9.94072529296875,-0.837970581054687
0.926459170030331,-0.378283862304687,9.9981861328125,-0.847547387695312
0.934414109917483,-0.416591088867187,9.97424411621094,-0.809240161132812
0.942369049804634,-0.426167895507812,9.95987890625,-0.842758984375
0.950325130208279,-0.426167895507812,9.9215716796875,-0.86191259765625
0.958281210611924,-0.4213794921875,9.95030209960937,-0.828393774414062
0.966237291015569,-0.411802685546875,9.97424411621094,-0.82360537109375
0.974260964626679,-0.426167895507812,9.95030209960937,-0.828393774414062
0.98228463823779,-0.411802685546875,9.95030209960937,-0.847547387695312
0.990308311848901,-0.454898315429687,9.95987890625,-0.809240161132812
0.998334050347165,-0.435744702148437,9.95509050292969,-0.833182177734375
1.00635978884543,-0.40222587890625,9.92636008300781,-0.809240161132812
1.01438552734369,-0.411802685546875,9.94551369628906,-0.809240161132812
1.02241328927946,-0.435744702148437,9.92636008300781,-0.828393774414062
1.03044105121522,-0.426167895507812,9.95987890625,-0.799663354492188
1.03846881315099,-0.474051928710937,9.93114848632812,-0.742202514648437
1.04649809157981,-0.44053310546875,9.93114848632812,-0.842758984375
1.05452737000863,-0.387860668945312,9.91678327636719,-0.76614453125
1.06255664843744,-0.44053310546875,9.94551369628906,-0.794874951171875
1.07058709266487,-0.411802685546875,9.96466730957031,-0.890643017578125
1.0786175368923,-0.4213794921875,9.94551369628906,-0.833182177734375
1.08664798111973,-0.450109912109375,9.97903251953125,-0.74699091796875
1.09474982986105,-0.430956298828125,9.93593688964844,-0.780509741210937
1.10285167860237,-0.40222587890625,9.91678327636719,-0.814028564453125
1.11095352734369,-0.40222587890625,9.96945571289062,-0.756567724609375
1.11906033441834,-0.435744702148437,9.95509050292969,-0.8044517578125
1.12716714149299,-0.430956298828125,9.91199487304687,-0.761356127929687
1.13527394856765,-0.435744702148437,9.94551369628906,-0.828393774414062
1.14338633203119,-0.397437475585937,9.91678327636719,-0.866701000976562
1.15149871549473,-0.397437475585937,9.93114848632812,-0.828393774414062
1.15961109895827,-0.407014282226562,9.95987890625,-0.833182177734375
1.16772594184021,-0.397437475585937,9.97424411621094,-0.780509741210937
1.17584078472216,-0.411802685546875,9.93114848632812,-0.775721337890625
1.1839556276041,-0.392649072265625,9.95509050292969,-0.814028564453125
1.19207375368917,-0.387860668945312,9.93593688964844,-0.8044517578125
1.20019187977424,-0.445321508789062,9.96945571289062,-0.852335791015625
1.20831000585931,-0.392649072265625,9.91678327636719,-0.82360537109375
1.2164894276258,-0.407014282226562,9.93114848632812,-0.871489404296875
1.22466884939229,-0.407014282226562,9.91199487304687,-0.871489404296875
1.23284827115878,-0.407014282226562,9.91199487304687,-0.847547387695312
1.241031251085,-0.411802685546875,9.94551369628906,-0.905008227539062
1.24921423101121,-0.368707055664062,9.98382092285156,-0.876277807617187
1.25739721093743,-0.416591088867187,9.94072529296875,-0.857124194335937
1.26558384429246,-0.378283862304687,9.91678327636719,-0.842758984375
1.27377047764749,-0.411802685546875,9.91199487304687,-0.842758984375
1.28195711100253,-0.397437475585937,9.93593688964844,-0.928950244140625
1.29014558886711,-0.368707055664062,9.9215716796875,-0.8810662109375
1.2983340667317,-0.392649072265625,9.93593688964844,-0.890643017578125
1.30652254459628,-0.354341845703125,9.88805285644531,-0.890643017578125
1.31471383626295,-0.330399829101562,9.89284125976562,-0.895431420898437
1.32290512792961,-0.392649072265625,9.94551369628906,-0.885854614257812
1.33109641959628,-0.387860668945312,9.90720646972656,-0.866701000976562
1.3393546745876,-0.36391865234375,9.9215716796875,-0.814028564453125
1.34761292957892,-0.383072265625,9.94072529296875,-0.885854614257812
1.35587118457024,-0.392649072265625,9.93114848632812,-0.852335791015625
1.36413239572475,-0.378283862304687,9.9215716796875,-0.847547387695312
1.37239360687926,-0.378283862304687,9.91678327636719,-0.842758984375
1.38065481803378,-0.397437475585937,9.92636008300781,-0.871489404296875
1.38891881966138,-0.378283862304687,9.94551369628906,-0.818816967773437
1.39718282128899,-0.392649072265625,9.95987890625,-0.852335791015625
1.40544682291659,-0.435744702148437,9.89284125976562,-0.847547387695312
1.41371268370218,-0.378283862304687,9.94072529296875,-0.895431420898437
1.42197854448777,-0.411802685546875,9.89284125976562,-0.82360537109375
1.43024440527336,-0.397437475585937,9.91199487304687,-0.842758984375
1.43851206618916,-0.407014282226562,9.90241806640625,-0.790086547851562
1.44677972710496,-0.40222587890625,9.94072529296875,-0.833182177734375
1.45504738802075,-0.397437475585937,9.92636008300781,-0.842758984375
1.46338297558586,-0.40222587890625,9.93593688964844,-0.842758984375
1.47171856315096,-0.407014282226562,9.93593688964844,-0.847547387695312
1.48005415071607,-0.397437475585937,9.91678327636719,-0.818816967773437
1.48839266644957,-0.426167895507812,9.9215716796875,-0.837970581054687
1.49673118218308,-0.407014282226562,9.88805285644531,-0.876277807617187
1.50506969791658,-0.416591088867187,9.93593688964844,-0.876277807617187
1.51341015190964,-0.40222587890625,9.9215716796875,-0.837970581054687
1.52175060590269,-0.430956298828125,9.95987890625,-0.833182177734375
1.53009105989575,-0.430956298828125,9.95987890625,-0.790086547851562
1.53843409733064,-0.445321508789062,9.95987890625,-0.924161840820312
1.54677713476554,-0.378283862304687,9.94072529296875,-0.871489404296875
1.55512017220043,-0.445321508789062,9.95509050292969,-0.924161840820312
1.56346493250859,-0.426167895507812,9.94551369628906,-0.837970581054687
1.57180969281675,-0.454898315429687,9.90720646972656,-0.828393774414062
1.58015445312491,-0.4213794921875,9.96466730957031,-0.924161840820312
1.5885682560763,-0.445321508789062,9.94072529296875,-0.799663354492188
1.59698205902769,-0.445321508789062,9.93593688964844,-0.837970581054687
1.60539586197908,-0.454898315429687,9.97903251953125,-0.8810662109375
1.61388775520824,-0.445321508789062,9.96466730957031,-0.890643017578125
1.62237964843741,-0.430956298828125,9.96945571289062,-0.909796630859375
1.63087154166657,-0.416591088867187,9.95987890625,-0.852335791015625
1.63936870627161,-0.45968671875,9.95509050292969,-0.890643017578125
1.64786587087664,-0.416591088867187,9.98860932617187,-0.837970581054687
1.65636303548168,-0.416591088867187,9.98382092285156,-0.837970581054687
1.66486714409713,-0.407014282226562,9.98382092285156,-0.847547387695312
1.67337125271258,-0.450109912109375,9.95509050292969,-0.847547387695312
1.68187536132803,-0.435744702148437,9.95509050292969,-0.770932934570312
1.69038278949643,-0.4213794921875,9.96466730957031,-0.833182177734375
1.69889021766483,-0.435744702148437,9.98860932617187,-0.833182177734375
1.70739764583323,-0.450109912109375,9.96945571289062,-0.876277807617187
1.71590703103289,-0.40222587890625,9.97903251953125,-0.837970581054687
1.72441641623254,-0.454898315429687,9.98382092285156,-0.828393774414062
1.73292580143219,-0.426167895507812,9.96945571289062,-0.833182177734375
1.74143694401031,-0.44053310546875,9.95509050292969,-0.833182177734375
1.74994808658844,-0.44053310546875,9.96466730957031,-0.871489404296875
1.75845922916656,-0.392649072265625,9.9215716796875,-0.837970581054687
1.76697207259104,-0.407014282226562,9.94551369628906,-0.852335791015625
1.77548491601552,-0.426167895507812,9.95030209960937,-0.842758984375
1.78399775944,-0.430956298828125,9.95509050292969,-0.828393774414062
1.80111085156239,-0.40222587890625,9.94072529296875,-0.775721337890625
1.81822394368479,-0.392649072265625,9.95509050292969,-0.857124194335937
1.83533703580718,-0.430956298828125,9.96466730957031,-0.857124194335937
1.84391105685753,-0.407014282226562,9.91199487304687,-0.842758984375
1.85248507790788,-0.368707055664062,9.93593688964844,-0.799663354492188
1.86105909895823,-0.416591088867187,9.93593688964844,-0.828393774414062
1.86963652799468,-0.397437475585937,9.93593688964844,-0.799663354492188
1.87821395703114,-0.416591088867187,9.93593688964844,-0.818816967773437
1.8867913860676,-0.411802685546875,9.95509050292969,-0.837970581054687
1.89537057953548,-0.4213794921875,9.95509050292969,-0.790086547851562
1.90394977300336,-0.411802685546875,9.95509050292969,-0.770932934570312
1.91252896647124,-0.40222587890625,9.95030209960937,-0.866701000976562
1.92111099359798,-0.430956298828125,9.91199487304687,-0.770932934570312
1.92969302072471,-0.373495458984375,9.883264453125,-0.770932934570312
1.93827504785145,-0.445321508789062,9.92636008300781,-0.809240161132812
1.94692431694867,-0.435744702148437,9.93593688964844,-0.818816967773437
1.95557358604589,-0.4213794921875,9.93114848632812,-0.86191259765625
1.96422285514311,-0.4213794921875,9.93114848632812,-0.799663354492188
1.9728789268662,-0.4213794921875,9.91678327636719,-0.78529814453125
1.98153499858929,-0.407014282226562,9.92636008300781,-0.833182177734375
1.99019107031238,-0.392649072265625,9.90241806640625,-0.790086547851562
1.99885090874554,-0.392649072265625,9.93114848632812,-0.837970581054687
2.0075107471787,-0.4213794921875,9.95509050292969,-0.833182177734375
2.01617058561186,-0.426167895507812,9.96945571289062,-0.828393774414062
2.02483384787314,-0.416591088867187,9.91678327636719,-0.852335791015625
2.03349711013443,-0.4213794921875,9.94551369628906,-0.8044517578125
2.04216037239571,-0.416591088867187,9.97903251953125,-0.818816967773437
2.05084094900161,-0.450109912109375,9.97424411621094,-0.799663354492188
2.05952152560752,-0.407014282226562,9.98382092285156,-0.770932934570312
2.06820210221342,-0.435744702148437,9.95987890625,-0.78529814453125
2.07700798621949,-0.426167895507812,9.94072529296875,-0.78529814453125
2.08581387022557,-0.397437475585937,9.91199487304687,-0.847547387695312
2.09461975423164,-0.435744702148437,9.95509050292969,-0.818816967773437
2.10343166590699,-0.426167895507812,9.94072529296875,-0.818816967773437
2.11224357758234,-0.387860668945312,9.98860932617187,-0.814028564453125
2.12105548925768,-0.392649072265625,9.91678327636719,-0.842758984375
2.12986948470039,-0.387860668945312,9.93114848632812,-0.837970581054687
2.1386834801431,-0.4213794921875,9.94551369628906,-0.852335791015625
2.14749747558581,-0.4213794921875,9.93114848632812,-0.790086547851562
2.15631327604154,-0.378283862304687,9.95987890625,-0.780509741210937
2.16512907649726,-0.426167895507812,9.9215716796875,-0.885854614257812
2.17394487695299,-0.411802685546875,9.94072529296875,-0.770932934570312
2.18276244368476,-0.368707055664062,9.91199487304687,-0.86191259765625
2.19158001041654,-0.435744702148437,9.95030209960937,-0.90021982421875
2.20039757714831,-0.445321508789062,9.93114848632812,-0.828393774414062
2.20921686512574,-0.4213794921875,9.94551369628906,-0.842758984375
2.21803615310317,-0.416591088867187,9.94072529296875,-0.828393774414062
2.2268554410806,-0.392649072265625,9.9215716796875,-0.86191259765625
2.23567642328546,-0.416591088867187,9.93114848632812,-0.794874951171875
2.24449740549032,-0.373495458984375,9.93114848632812,-0.876277807617187
2.25331838769518,-0.40222587890625,9.97424411621094,-0.857124194335937
2.27548436325399,-0.359130249023437,10.0077629394531,-0.828393774414062
2.29765033881279,-0.373495458984375,9.96466730957031,-0.837970581054687
2.3198163143716,-0.392649072265625,10.0077629394531,-0.8044517578125
2.32871847300875,-0.36391865234375,9.99339772949219,-0.837970581054687
2.33762063164591,-0.354341845703125,9.99339772949219,-0.780509741210937
2.34652279028306,-0.378283862304687,9.96945571289062,-0.871489404296875
2.35542906665025,-0.359130249023437,10.0269165527344,-0.8810662109375
2.36433534301743,-0.3447650390625,10.0317049560547,-0.818816967773437
2.37324161938462,-0.330399829101562,10.036493359375,-0.866701000976562
2.38215310007039,-0.354341845703125,10.0173397460938,-0.852335791015625
2.39106458075615,-0.330399829101562,9.96466730957031,-0.871489404296875
2.39997606144191,-0.383072265625,9.97903251953125,-0.852335791015625
2.40889210321708,-0.36391865234375,9.94551369628906,-0.837970581054687
2.41780814499226,-0.387860668945312,9.91678327636719,-0.833182177734375
2.42672418676743,-0.3447650390625,9.97903251953125,-0.833182177734375
2.43568503898097,-0.44053310546875,9.96945571289062,-0.885854614257812
2.44464589119451,-0.378283862304687,9.95987890625,-0.852335791015625
2.45360674340805,-0.373495458984375,9.94551369628906,-0.885854614257812
2.4625708159992,-0.40222587890625,9.92636008300781,-0.833182177734375
2.47153488859034,-0.407014282226562,9.96466730957031,-0.890643017578125
2.48049896118149,-0.411802685546875,9.92636008300781,-0.8810662109375
2.48946554744451,-0.40222587890625,9.91199487304687,-0.847547387695312
2.49843213370753,-0.445321508789062,9.9215716796875,-0.885854614257812
2.50739871997055,-0.378283862304687,9.91199487304687,-0.847547387695312
2.51636725339069,-0.416591088867187,9.91678327636719,-0.90021982421875
2.52533578681083,-0.435744702148437,9.9215716796875,-0.833182177734375
2.53430432023097,-0.430956298828125,9.90720646972656,-0.82360537109375
2.54327578236204,-0.44053310546875,9.90241806640625,-0.90021982421875
2.55224724449312,-0.44053310546875,9.94072529296875,-0.790086547851562
2.5612187066242,-0.464475122070312,9.87368764648437,-0.799663354492188
2.57025835300006,-0.445321508789062,9.88805285644531,-0.871489404296875
2.57929799937593,-0.426167895507812,9.88805285644531,-0.82360537109375
2.5883376457518,-0.430956298828125,9.89284125976562,-0.833182177734375
2.59737983661551,-0.45968671875,9.9215716796875,-0.799663354492188
2.60642202747923,-0.45968671875,9.88805285644531,-0.837970581054687
2.61546421834294,-0.430956298828125,9.90241806640625,-0.833182177734375
2.62450893155909,-0.435744702148437,9.88805285644531,-0.790086547851562
2.63355364477524,-0.4213794921875,9.91199487304687,-0.818816967773437
2.64259835799138,-0.430956298828125,9.91678327636719,-0.790086547851562
2.65164518210162,-0.411802685546875,9.94072529296875,-0.809240161132812
2.66069200621187,-0.426167895507812,9.91678327636719,-0.828393774414062
2.66973883032211,-0.44053310546875,9.92636008300781,-0.837970581054687
2.67878755113374,-0.435744702148437,9.9215716796875,-0.833182177734375
2.68783627194537,-0.4213794921875,9.92636008300781,-0.799663354492188
2.69688499275701,-0.407014282226562,9.93593688964844,-0.852335791015625
2.70600253095145,-0.464475122070312,9.93593688964844,-0.790086547851562
2.71512006914589,-0.4213794921875,9.89762966308594,-0.828393774414062
2.72423760734033,-0.411802685546875,9.92636008300781,-0.847547387695312
2.73335822962766,-0.426167895507812,9.95030209960937,-0.809240161132812
2.74247885191499,-0.44053310546875,9.93114848632812,-0.86191259765625
2.75159947420232,-0.411802685546875,9.94551369628906,-0.790086547851562
2.76072291202783,-0.430956298828125,9.93593688964844,-0.828393774414062
2.76984634985335,-0.397437475585937,9.92636008300781,-0.837970581054687
2.77896978767888,-0.378283862304687,9.94072529296875,-0.852335791015625
2.78809509963634,-0.387860668945312,9.86411083984375,-0.8044517578125
2.7972204115938,-0.392649072265625,9.89762966308594,-0.8044517578125
2.80634572355127,-0.387860668945312,9.91199487304687,-0.76614453125
2.81547278691932,-0.44053310546875,9.96466730957031,-0.866701000976562
2.82459985028738,-0.426167895507812,9.94072529296875,-0.8044517578125
2.83372691365543,-0.368707055664062,9.96466730957031,-0.76614453125
2.84293278952349,-0.397437475585937,9.93114848632812,-0.82360537109375
2.85213866539154,-0.469263525390625,9.92636008300781,-0.756567724609375
2.8613445412596,-0.4213794921875,9.96466730957031,-0.852335791015625
2.87055484410248,-0.4213794921875,9.95030209960937,-0.828393774414062
2.87976514694536,-0.407014282226562,9.92636008300781,-0.790086547851562
2.88897544978824,-0.397437475585937,9.93114848632812,-0.82360537109375
2.89819142873789,-0.450109912109375,9.97903251953125,-0.82360537109375
2.90740740768755,-0.397437475585937,9.95030209960937,-0.86191259765625
2.9166233866372,-0.4213794921875,9.96466730957031,-0.814028564453125
2.92584878398963,-0.392649072265625,9.98382092285156,-0.799663354492188
2.93507418134206,-0.392649072265625,9.9215716796875,-0.82360537109375
2.94429957869449,-0.407014282226562,9.96466730957031,-0.814028564453125
2.95352960766585,-0.416591088867187,9.96945571289062,-0.790086547851562
2.9627596366372,-0.392649072265625,9.93114848632812,-0.814028564453125
2.97198966560855,-0.397437475585937,9.95030209960937,-0.818816967773437
2.98126351695404,-0.383072265625,9.95509050292969,-0.866701000976562
2.99053736829953,-0.397437475585937,9.95509050292969,-0.833182177734375
2.99981121964501,-0.36391865234375,9.94072529296875,-0.837970581054687
3.00909006578216,-0.359130249023437,9.94551369628906,-0.837970581054687
3.01836891191932,-0.387860668945312,9.98382092285156,-0.818816967773437
3.02764775805647,-0.373495458984375,9.97903251953125,-0.799663354492188
3.03693419566497,-0.335188232421875,9.98382092285156,-0.799663354492188
3.04622063327348,-0.387860668945312,9.94551369628906,-0.842758984375
3.05550707088199,-0.383072265625,9.99339772949219,-0.82360537109375
3.06479673266584,-0.378283862304687,9.91678327636719,-0.833182177734375
3.07408639444969,-0.40222587890625,9.93114848632812,-0.818816967773437
3.08337605623355,-0.411802685546875,9.96466730957031,-0.857124194335937
3.09266803453216,-0.387860668945312,9.95987890625,-0.82360537109375
3.10196001283077,-0.416591088867187,9.94551369628906,-0.809240161132812
3.11125199112938,-0.368707055664062,9.95987890625,-0.837970581054687
3.1206825399575,-0.411802685546875,9.95987890625,-0.818816967773437
3.13011308878563,-0.397437475585937,9.94551369628906,-0.818816967773437
3.13954363761376,-0.397437475585937,9.94551369628906,-0.852335791015625
3.14898334573007,-0.407014282226562,9.93593688964844,-0.82360537109375
3.15842305384639,-0.416591088867187,9.93593688964844,-0.837970581054687
3.16786276196271,-0.392649072265625,9.95030209960937,-0.86191259765625
3.17730697734899,-0.373495458984375,9.94072529296875,-0.885854614257812
3.18675119273528,-0.416591088867187,9.95987890625,-0.895431420898437
3.19619540812156,-0.40222587890625,9.95030209960937,-0.818816967773437
3.20195384925654,-0.416591088867187,9.94551369628906,-0.842758984375
3.20771229039153,-0.397437475585937,9.91678327636719,-0.857124194335937
3.21347073152651,-0.378283862304687,9.91199487304687,-0.814028564453125
3.21552681117061,-0.373495458984375,9.93593688964844,-0.828393774414062
3.21758289081471,-0.397437475585937,9.94072529296875,-0.8044517578125
3.21963897045881,-0.426167895507812,9.92636008300781,-0.837970581054687
3.22169517803259,-0.426167895507812,9.92636008300781,-0.866701000976562
3.22375138560638,-0.416591088867187,9.93593688964844,-0.876277807617187
3.22580759318016,-0.40222587890625,9.90241806640625,-0.82360537109375
3.22786063745099,-0.430956298828125,9.94072529296875,-0.794874951171875
3.22991368172183,-0.44053310546875,9.96945571289062,-0.82360537109375
3.23196672599266,-0.407014282226562,9.94072529296875,-0.847547387695312
3.23715338978389,-0.392649072265625,9.91678327636719,-0.857124194335937
3.24234005357512,-0.387860668945312,9.93593688964844,-0.876277807617187
3.24752671736635,-0.4213794921875,9.96466730957031,-0.905008227539062
3.24959917531991,-0.378283862304687,9.93114848632812,-0.871489404296875
3.25167163327347,-0.373495458984375,9.93593688964844,-0.871489404296875
3.25374409122703,-0.387860668945312,9.98382092285156,-0.847547387695312
3.2557810909015,-0.407014282226562,9.9215716796875,-0.871489404296875
3.25781809057598,-0.4213794921875,9.94551369628906,-0.82360537109375
3.25985509025046,-0.426167895507812,9.94072529296875,-0.837970581054687
3.26188893107077,-0.416591088867187,9.94551369628906,-0.86191259765625
3.26392277189109,-0.411802685546875,9.95987890625,-0.895431420898437
3.2659566127114,-0.44053310546875,9.94072529296875,-0.828393774414062
3.26799048608379,-0.392649072265625,9.93114848632812,-0.8810662109375
3.27002435945619,-0.387860668945312,9.94072529296875,-0.842758984375
3.27205823282858,-0.378283862304687,9.96466730957031,-0.895431420898437
3.27424993855775,-0.454898315429687,9.92636008300781,-0.852335791015625
3.27644164428692,-0.411802685546875,9.96466730957031,-0.847547387695312
3.27863335001609,-0.4213794921875,9.93593688964844,-0.799663354492188
3.2808307517088,-0.435744702148437,9.93114848632812,-0.837970581054687
3.28302815340151,-0.411802685546875,9.94072529296875,-0.866701000976562
3.28522555509421,-0.430956298828125,9.92636008300781,-0.799663354492188
3.28735739504647,-0.416591088867187,9.94072529296875,-0.809240161132812
3.28948923499873,-0.445321508789062,9.91199487304687,-0.82360537109375
3.29162107495099,-0.435744702148437,9.92636008300781,-0.828393774414062
3.29375373749439,-0.383072265625,9.92636008300781,-0.866701000976562
3.29588640003779,-0.359130249023437,9.95987890625,-0.809240161132812
3.2980190625812,-0.435744702148437,9.95030209960937,-0.852335791015625
3.30015337779387,-0.445321508789062,9.95030209960937,-0.799663354492188
3.30228769300654,-0.387860668945312,9.96945571289062,-0.847547387695312
3.30442200821921,-0.392649072265625,9.97903251953125,-0.895431420898437
3.30655835055862,-0.40222587890625,9.95509050292969,-0.814028564453125
3.30869469289803,-0.411802685546875,9.91199487304687,-0.871489404296875
3.31083103523744,-0.354341845703125,9.95987890625,-0.885854614257812
3.3129695033364,-0.416591088867187,9.93593688964844,-0.833182177734375
3.31510797143536,-0.40222587890625,9.94072529296875,-0.871489404296875
3.31724643953432,-0.378283862304687,9.97424411621094,-0.82360537109375
3.32248328032751,-0.416591088867187,9.91199487304687,-0.828393774414062
3.3277201211207,-0.430956298828125,9.93593688964844,-0.847547387695312
3.33295696191389,-0.416591088867187,9.90241806640625,-0.814028564453125
3.33506306461571,-0.426167895507812,9.95030209960937,-0.842758984375
3.33716916731753,-0.45968671875,9.95509050292969,-0.82360537109375
3.33927527001936,-0.397437475585937,9.95030209960937,-0.814028564453125
3.34139637744123,-0.416591088867187,9.94551369628906,-0.847547387695312
3.3435174848631,-0.407014282226562,9.91678327636719,-0.751779321289062
3.34563859228498,-0.411802685546875,9.93593688964844,-0.847547387695312
3.34773099956579,-0.407014282226562,9.93593688964844,-0.82360537109375
3.34982340684661,-0.426167895507812,9.9215716796875,-0.8044517578125
3.35191581412743,-0.407014282226562,9.97903251953125,-0.847547387695312
3.35397737901458,-0.411802685546875,9.91199487304687,-0.857124194335937
3.35603894390173,-0.387860668945312,9.94072529296875,-0.82360537109375
3.35810050878889,-0.435744702148437,9.90241806640625,-0.8044517578125
3.36020190673811,-0.44053310546875,9.96945571289062,-0.842758984375
3.36230330468733,-0.383072265625,9.94072529296875,-0.828393774414062
3.36440470263654,-0.40222587890625,9.89762966308594,-0.8044517578125
3.36650140570729,-0.445321508789062,9.92636008300781,-0.828393774414062
3.36859810877804,-0.4213794921875,9.93114848632812,-0.842758984375
3.37069481184878,-0.44053310546875,9.95509050292969,-0.799663354492188
3.37278806222856,-0.435744702148437,9.92636008300781,-0.842758984375
3.37488131260833,-0.378283862304687,9.94551369628906,-0.799663354492188
3.37697456298811,-0.407014282226562,9.95509050292969,-0.756567724609375
3.37903968212873,-0.426167895507812,9.95030209960937,-0.871489404296875
3.38110480126936,-0.378283862304687,9.9215716796875,-0.833182177734375
3.38316992040998,-0.383072265625,9.93593688964844,-0.799663354492188
3.38520618977847,-0.383072265625,9.92636008300781,-0.828393774414062
3.38724245914696,-0.378283862304687,9.93593688964844,-0.794874951171875
3.38927872851545,-0.392649072265625,9.95509050292969,-0.799663354492188
3.39138043012136,-0.430956298828125,9.94072529296875,-0.842758984375
3.39348213172726,-0.378283862304687,9.95030209960937,-0.852335791015625
3.39558383333316,-0.445321508789062,9.95509050292969,-0.814028564453125
3.3976863527559,-0.378283862304687,9.94072529296875,-0.799663354492188
3.39978887217865,-0.411802685546875,9.96945571289062,-0.742202514648437
3.40189139160139,-0.368707055664062,9.96466730957031,-0.775721337890625
3.40399406163177,-0.4213794921875,9.95509050292969,-0.852335791015625
3.40609673166215,-0.40222587890625,9.95509050292969,-0.737414111328125
3.40819940169253,-0.392649072265625,9.96945571289062,-0.8044517578125
3.41027046744774,-0.430956298828125,9.95030209960937,-0.8044517578125
3.41234153320295,-0.392649072265625,9.93114848632812,-0.814028564453125
3.41441259895816,-0.407014282226562,9.94072529296875,-0.847547387695312
3.41645000103064,-0.40222587890625,9.91199487304687,-0.890643017578125
3.41848740310312,-0.383072265625,9.97424411621094,-0.775721337890625
3.42052480517561,-0.430956298828125,9.95987890625,-0.8044517578125
3.42264129519297,-0.416591088867187,9.94072529296875,-0.833182177734375
3.42475778521033,-0.40222587890625,9.95987890625,-0.780509741210937
3.42687427522769,-0.445321508789062,9.90720646972656,-0.876277807617187
3.42899358702239,-0.40222587890625,9.91199487304687,-0.8044517578125
3.43111289881709,-0.387860668945312,9.93593688964844,-0.814028564453125
3.4332322106118,-0.445321508789062,9.93593688964844,-0.876277807617187
3.43535358718515,-0.430956298828125,9.94072529296875,-0.866701000976562
3.4374749637585,-0.426167895507812,9.93114848632812,-0.837970581054687
3.43959634033185,-0.411802685546875,9.94072529296875,-0.852335791015625
3.44168497520598,-0.430956298828125,9.92636008300781,-0.814028564453125
3.44377361008011,-0.4213794921875,9.94072529296875,-0.828393774414062
3.44586224495424,-0.411802685546875,9.9215716796875,-0.828393774414062
3.44791717344817,-0.426167895507812,9.91678327636719,-0.833182177734375
3.44997210194209,-0.416591088867187,9.9215716796875,-0.86191259765625
3.45202703043601,-0.411802685546875,9.92636008300781,-0.78529814453125
3.45414497650806,-0.430956298828125,9.96466730957031,-0.885854614257812
3.45626292258011,-0.450109912109375,9.90241806640625,-0.799663354492188
3.45838086865216,-0.4213794921875,9.92636008300781,-0.847547387695312
3.46050365798592,-0.45968671875,9.95030209960937,-0.833182177734375
3.46262644731969,-0.4213794921875,9.96945571289062,-0.857124194335937
3.46474923665346,-0.40222587890625,9.93593688964844,-0.794874951171875
3.46687439425979,-0.4213794921875,9.93114848632812,-0.852335791015625
3.46899955186613,-0.387860668945312,9.93114848632812,-0.814028564453125
3.47112470947247,-0.450109912109375,9.93114848632812,-0.833182177734375
3.47321890679235,-0.397437475585937,9.91199487304687,-0.799663354492188
3.47531310411223,-0.411802685546875,9.93593688964844,-0.837970581054687
3.47740730143211,-0.411802685546875,9.9215716796875,-0.842758984375
3.47947058930103,-0.44053310546875,9.94551369628906,-0.814028564453125
3.48153387716995,-0.407014282226562,9.94072529296875,-0.857124194335937
3.48359716503887,-0.416591088867187,9.93593688964844,-0.852335791015625
3.48570312923158,-0.387860668945312,9.93114848632812,-0.885854614257812
3.48780909342429,-0.40222587890625,9.94551369628906,-0.847547387695312
3.48991505761699,-0.397437475585937,9.94551369628906,-0.799663354492188
3.49209734342428,-0.407014282226562,9.94072529296875,-0.8044517578125
3.49427962923157,-0.445321508789062,9.92636008300781,-0.818816967773437
3.49646191503886,-0.407014282226562,9.93593688964844,-0.775721337890625
3.49864532628018,-0.392649072265625,9.94551369628906,-0.76614453125
3.5008287375215,-0.411802685546875,9.91678327636719,-0.847547387695312
3.50301214876282,-0.416591088867187,9.90720646972656,-0.818816967773437
3.50523464170987,-0.387860668945312,9.95030209960937,-0.82360537109375
3.50745713465692,-0.40222587890625,9.95030209960937,-0.852335791015625
3.50967962760397,-0.44053310546875,9.93593688964844,-0.78529814453125
3.51186735926629,-0.45968671875,9.92636008300781,-0.809240161132812
3.51405509092862,-0.407014282226562,9.90720646972656,-0.78529814453125
3.51624282259095,-0.450109912109375,9.89284125976562,-0.895431420898437
3.51842765006491,-0.416591088867187,9.91678327636719,-0.799663354492188
3.52061247753887,-0.4213794921875,9.90720646972656,-0.794874951171875
3.52279730501283,-0.387860668945312,9.9215716796875,-0.833182177734375
3.52498008984356,-0.426167895507812,9.94551369628906,-0.885854614257812
3.52716287467428,-0.397437475585937,9.93114848632812,-0.833182177734375
3.52934565950501,-0.445321508789062,9.92636008300781,-0.86191259765625
3.53152729231751,-0.416591088867187,9.90720646972656,-0.78529814453125
3.53370892513001,-0.397437475585937,9.90241806640625,-0.809240161132812
3.53589055794252,-0.44053310546875,9.9215716796875,-0.847547387695312
3.54015864377151,-0.416591088867187,9.93114848632812,-0.737414111328125
3.54442672960051,-0.407014282226562,9.89762966308594,-0.833182177734375
3.5486948154295,-0.392649072265625,9.95030209960937,-0.837970581054687
3.55081053244339,-0.40222587890625,9.93114848632812,-0.8044517578125
3.55292624945728,-0.445321508789062,9.92636008300781,-0.837970581054687
3.55504196647117,-0.450109912109375,9.95509050292969,-0.857124194335937
3.5604360853134,-0.40222587890625,9.94072529296875,-0.809240161132812
3.56583020415564,-0.40222587890625,9.94072529296875,-0.8044517578125
3.57122432299787,-0.454898315429687,9.96466730957031,-0.857124194335937
3.57333586499006,-0.4213794921875,9.97424411621094,-0.866701000976562
3.57544740698225,-0.426167895507812,9.95509050292969,-0.857124194335937
3.57755894897443,-0.392649072265625,9.93593688964844,-0.8044517578125
3.57966991186506,-0.392649072265625,10.0029745361328,-0.756567724609375
3.58178087475568,-0.407014282226562,9.97424411621094,-0.842758984375
3.5838918376463,-0.430956298828125,9.97903251953125,-0.799663354492188
3.58600148120099,-0.44053310546875,9.97424411621094,-0.799663354492188
3.58811112475568,-0.397437475585937,9.91678327636719,-0.76614453125
3.59022076831037,-0.411802685546875,9.95987890625,-0.770932934570312
3.59232973966453,-0.450109912109375,9.95030209960937,-0.818816967773437
3.5944387110187,-0.416591088867187,9.95509050292969,-0.8044517578125
3.59654768237286,-0.373495458984375,9.94551369628906,-0.828393774414062
3.59872521481644,-0.416591088867187,9.98382092285156,-0.8044517578125
3.60090274726001,-0.4213794921875,9.94551369628906,-0.82360537109375
3.60308027970359,-0.435744702148437,9.95030209960937,-0.847547387695312
3.60519342184769,-0.4213794921875,9.92636008300781,-0.828393774414062
3.60730656399178,-0.40222587890625,9.96466730957031,-0.809240161132812
3.60941970613588,-0.4213794921875,9.93593688964844,-0.74699091796875
3.61160401483814,-0.426167895507812,9.95509050292969,-0.76614453125
3.61378832354039,-0.435744702148437,9.92636008300781,-0.761356127929687
3.61597263224265,-0.430956298828125,9.94551369628906,-0.78529814453125
3.61815865687373,-0.392649072265625,9.95987890625,-0.814028564453125
3.6203446815048,-0.4213794921875,9.94072529296875,-0.847547387695312
3.62253070613588,-0.474051928710937,9.94551369628906,-0.809240161132812
3.624716372043,-0.435744702148437,9.96945571289062,-0.780509741210937
3.62690203795012,-0.426167895507812,9.93114848632812,-0.814028564453125
3.62908770385724,-0.430956298828125,9.94551369628906,-0.842758984375
3.63127355183901,-0.464475122070312,9.96466730957031,-0.833182177734375
3.63345939982078,-0.454898315429687,9.95030209960937,-0.833182177734375
3.63564524780255,-0.454898315429687,9.92636008300781,-0.809240161132812
3.6377634471298,-0.44053310546875,9.93593688964844,-0.8044517578125
3.63988164645706,-0.407014282226562,9.95987890625,-0.809240161132812
3.64199984578432,-0.45968671875,9.95987890625,-0.78529814453125
3.64404190101435,-0.445321508789062,9.93593688964844,-0.8044517578125
3.64608395624439,-0.426167895507812,9.94072529296875,-0.814028564453125
3.64812601147442,-0.426167895507812,9.94072529296875,-0.847547387695312
3.65016400507251,-0.464475122070312,9.97903251953125,-0.82360537109375
3.6522019986706,-0.368707055664062,9.97424411621094,-0.78529814453125
3.65423999226869,-0.426167895507812,9.97903251953125,-0.866701000976562
3.65736724302824,-0.488417138671875,9.94072529296875,-0.78529814453125
3.66049449378779,-0.435744702148437,9.93114848632812,-0.876277807617187
3.66362174454733,-0.416591088867187,9.97424411621094,-0.790086547851562
3.6657163236489,-0.450109912109375,9.96945571289062,-0.837970581054687
3.66781090275046,-0.44053310546875,9.94072529296875,-0.885854614257812
3.66990548185202,-0.426167895507812,9.92636008300781,-0.842758984375
3.6720003892956,-0.407014282226562,9.93114848632812,-0.78529814453125
3.67409529673917,-0.450109912109375,9.92636008300781,-0.852335791015625
3.67619020418275,-0.445321508789062,9.95509050292969,-0.82360537109375
3.67828525252259,-0.349553442382812,9.95030209960937,-0.775721337890625
3.68038030086244,-0.397437475585937,9.94551369628906,-0.852335791015625
3.68247534920228,-0.44053310546875,9.95509050292969,-0.852335791015625
3.68456126955818,-0.430956298828125,9.95509050292969,-0.876277807617187
3.68664718991409,-0.416591088867187,9.95509050292969,-0.852335791015625
3.68873311026999,-0.397437475585937,9.93593688964844,-0.852335791015625
3.69085174308249,-0.4213794921875,9.96466730957031,-0.842758984375
3.69297037589499,-0.430956298828125,9.97424411621094,-0.842758984375
3.69508900870749,-0.435744702148437,9.95030209960937,-0.833182177734375
3.69719832798918,-0.397437475585937,9.93593688964844,-0.842758984375
3.69930764727086,-0.430956298828125,9.94072529296875,-0.852335791015625
3.70141696655255,-0.416591088867187,9.95509050292969,-0.90021982421875
3.70352448239456,-0.435744702148437,9.96466730957031,-0.809240161132812
3.70563199823657,-0.435744702148437,9.93114848632812,-0.82360537109375
3.70773951407859,-0.469263525390625,9.97903251953125,-0.790086547851562
3.7098461776528,-0.454898315429687,9.93593688964844,-0.780509741210937
3.71195284122702,-0.445321508789062,9.94072529296875,-0.78529814453125
3.71405950480124,-0.397437475585937,9.93114848632812,-0.780509741210937
3.71616638647442,-0.445321508789062,9.93593688964844,-0.842758984375
3.7182732681476,-0.430956298828125,9.96466730957031,-0.8044517578125
3.72038014982078,-0.4213794921875,9.96945571289062,-0.842758984375
3.72252580270706,-0.416591088867187,9.98860932617187,-0.842758984375
3.72467145559335,-0.435744702148437,9.97424411621094,-0.833182177734375
3.72681710847963,-0.445321508789062,9.97424411621094,-0.847547387695312
3.72893007261809,-0.430956298828125,9.96466730957031,-0.86191259765625
3.73104303675654,-0.450109912109375,9.96466730957031,-0.809240161132812
3.73315600089499,-0.469263525390625,9.95987890625,-0.814028564453125
3.73526556285246,-0.435744702148437,9.97903251953125,-0.828393774414062
3.73737512480992,-0.464475122070312,9.96466730957031,-0.814028564453125
3.73948468676739,-0.416591088867187,9.92636008300781,-0.833182177734375
3.74159245206687,-0.435744702148437,9.94551369628906,-0.794874951171875
3.74370021736634,-0.464475122070312,9.88805285644531,-0.780509741210937
3.74580798266582,-0.392649072265625,9.96466730957031,-0.8044517578125
3.74790711043275,-0.44053310546875,9.96945571289062,-0.842758984375
3.75000623819968,-0.445321508789062,9.95509050292969,-0.814028564453125
3.75210536596661,-0.450109912109375,9.9215716796875,-0.828393774414062
3.75419832153301,-0.430956298828125,9.91199487304687,-0.742202514648437
3.75629127709942,-0.435744702148437,9.94072529296875,-0.770932934570312
3.75838423266583,-0.464475122070312,9.92636008300781,-0.761356127929687
3.76041773901348,-0.4213794921875,9.94072529296875,-0.761356127929687
3.76245124536114,-0.445321508789062,9.90720646972656,-0.751779321289062
3.76448475170879,-0.445321508789062,9.89762966308594,-0.78529814453125
3.76651943356643,-0.464475122070312,9.93593688964844,-0.794874951171875
3.76855411542407,-0.488417138671875,9.94072529296875,-0.794874951171875
3.77058879728171,-0.44053310546875,9.95030209960937,-0.837970581054687
3.77262508010506,-0.47884033203125,9.91678327636719,-0.751779321289062
3.77466136292841,-0.454898315429687,9.95987890625,-0.790086547851562
3.77669764575176,-0.488417138671875,9.9215716796875,-0.780509741210937
3.77873401879864,-0.45968671875,9.96466730957031,-0.82360537109375
3.78077039184551,-0.445321508789062,9.93593688964844,-0.818816967773437
3.78280676489239,-0.407014282226562,9.89284125976562,-0.828393774414062
3.78490308721227,-0.45968671875,9.93593688964844,-0.775721337890625
3.78699940953214,-0.416591088867187,9.97903251953125,-0.837970581054687
3.78909573185202,-0.4213794921875,9.95509050292969,-0.790086547851562
3.79119286314543,-0.435744702148437,9.98382092285156,-0.86191259765625
3.79328999443883,-0.426167895507812,9.92636008300781,-0.837970581054687
3.79538712573223,-0.450109912109375,9.96466730957031,-0.876277807617187
3.79747755589445,-0.469263525390625,9.96466730957031,-0.818816967773437
3.79956798605667,-0.426167895507812,9.99339772949219,-0.761356127929687
3.80165841621889,-0.44053310546875,9.95030209960937,-0.837970581054687
3.80378952351869,-0.430956298828125,9.98382092285156,-0.833182177734375
3.8059206308185,-0.445321508789062,9.98860932617187,-0.8044517578125
3.80805173811831,-0.4213794921875,9.98382092285156,-0.78529814453125
3.810161077094,-0.397437475585937,10.0173397460938,-0.751779321289062
3.8122704160697,-0.407014282226562,9.96945571289062,-0.761356127929687
3.81437975504539,-0.407014282226562,9.96945571289062,-0.751779321289062
3.81647466965043,-0.392649072265625,9.96466730957031,-0.742202514648437
3.81856958425546,-0.40222587890625,9.98860932617187,-0.756567724609375
3.82066449886049,-0.445321508789062,10.0125513427734,-0.76614453125
3.8227571598848,-0.392649072265625,9.99339772949219,-0.756567724609375
3.82484982090911,-0.387860668945312,10.036493359375,-0.770932934570312
3.82694248193341,-0.383072265625,10.0029745361328,-0.799663354492188
3.82903177924244,-0.4213794921875,9.98860932617187,-0.756567724609375
3.83112107655147,-0.359130249023437,9.98860932617187,-0.82360537109375
3.83321037386049,-0.392649072265625,9.98382092285156,-0.775721337890625
3.83529686800112,-0.407014282226562,9.95509050292969,-0.761356127929687
3.83738336214174,-0.378283862304687,10.0029745361328,-0.8044517578125
3.83946985628237,-0.416591088867187,9.96466730957031,-0.828393774414062
3.84151324343515,-0.4213794921875,9.95030209960937,-0.794874951171875
3.84355663058793,-0.392649072265625,9.95030209960937,-0.8044517578125
3.84560001774071,-0.45968671875,9.95509050292969,-0.82360537109375
3.84778543863914,-0.426167895507812,9.97903251953125,-0.751779321289062
3.84997085953758,-0.483628735351562,9.95509050292969,-0.794874951171875
3.85215628043602,-0.45968671875,9.94072529296875,-0.799663354492188
3.85434530799678,-0.469263525390625,9.95030209960937,-0.833182177734375
3.85653433555754,-0.45968671875,9.95030209960937,-0.780509741210937
3.85872336311831,-0.454898315429687,9.93593688964844,-0.78529814453125
3.86091284868688,-0.45968671875,9.93114848632812,-0.794874951171875
3.86310233425546,-0.445321508789062,9.94551369628906,-0.828393774414062
3.86529181982404,-0.416591088867187,9.93114848632812,-0.857124194335937
3.8674802270506,-0.430956298828125,9.92636008300781,-0.809240161132812
3.86966863427716,-0.45968671875,9.883264453125,-0.847547387695312
3.87185704150372,-0.435744702148437,9.95030209960937,-0.78529814453125
3.87397905181188,-0.483628735351562,9.88805285644531,-0.756567724609375
3.87610106212004,-0.454898315429687,9.883264453125,-0.770932934570312
3.8782230724282,-0.469263525390625,9.93593688964844,-0.775721337890625
3.88034428824851,-0.483628735351562,9.9215716796875,-0.8044517578125
3.88246550406882,-0.450109912109375,9.9215716796875,-0.737414111328125
3.88458671988913,-0.483628735351562,9.90720646972656,-0.833182177734375
3.88670713753236,-0.435744702148437,9.91199487304687,-0.837970581054687
3.88882755517559,-0.474051928710937,9.91199487304687,-0.76614453125
3.89094797281882,-0.45968671875,9.93114848632812,-0.780509741210937
3.89633683056622,-0.450109912109375,9.95987890625,-0.770932934570312
3.90172568831361,-0.430956298828125,9.94551369628906,-0.814028564453125
3.90711454606101,-0.445321508789062,9.93593688964844,-0.818816967773437
3.90924180067256,-0.430956298828125,9.93593688964844,-0.770932934570312
3.9113690552841,-0.416591088867187,9.95509050292969,-0.756567724609375
3.91349630989565,-0.469263525390625,9.94072529296875,-0.833182177734375
3.9156243107637,-0.45968671875,9.94072529296875,-0.751779321289062
3.91775231163176,-0.435744702148437,9.97903251953125,-0.742202514648437
3.91988031249982,-0.488417138671875,9.95987890625,-0.790086547851562
3.92200940798593,-0.454898315429687,9.98860932617187,-0.732625708007812
3.92413850347204,-0.450109912109375,9.94072529296875,-0.78529814453125
3.92626759895815,-0.4213794921875,9.94551369628906,-0.76614453125
3.92839870111744,-0.416591088867187,9.95509050292969,-0.770932934570312
3.93052980327673,-0.454898315429687,9.94551369628906,-0.794874951171875
3.93266090543601,-0.430956298828125,9.97903251953125,-0.780509741210937
3.93475561159921,-0.4213794921875,9.94072529296875,-0.718260498046875
3.9368503177624,-0.407014282226562,9.94072529296875,-0.794874951171875
3.9389450239256,-0.426167895507812,9.95987890625,-0.737414111328125
3.94104141612395,-0.474051928710937,9.92636008300781,-0.751779321289062
3.9431378083223,-0.397437475585937,9.97424411621094,-0.78529814453125
3.94523420052065,-0.397437475585937,9.93114848632812,-0.775721337890625
3.9473279723848,-0.430956298828125,9.91678327636719,-0.74699091796875
3.94942174424895,-0.4213794921875,9.94072529296875,-0.794874951171875
3.9515155161131,-0.416591088867187,9.9981861328125,-0.756567724609375
3.95367798616518,-0.387860668945312,9.95987890625,-0.718260498046875
3.95584045621726,-0.4213794921875,9.93593688964844,-0.756567724609375
3.95800292626935,-0.397437475585937,9.9981861328125,-0.770932934570312
3.96016141482186,-0.378283862304687,9.94551369628906,-0.742202514648437
3.96231990337438,-0.397437475585937,9.9981861328125,-0.723048901367187
3.96447839192689,-0.383072265625,9.98382092285156,-0.751779321289062
3.96661680604365,-0.392649072265625,9.97903251953125,-0.756567724609375
3.9687552201604,-0.411802685546875,9.93114848632812,-0.8044517578125
3.97089363427716,-0.416591088867187,9.95030209960937,-0.756567724609375
3.97300967898202,-0.40222587890625,9.96945571289062,-0.76614453125
3.97512572368688,-0.411802685546875,9.98382092285156,-0.78529814453125
3.97724176839174,-0.416591088867187,9.97424411621094,-0.8044517578125
3.97935332193992,-0.450109912109375,9.96945571289062,-0.799663354492188
3.98146487548809,-0.430956298828125,9.96466730957031,-0.761356127929687
3.98357642903627,-0.411802685546875,9.93593688964844,-0.679953271484375
3.98568435980884,-0.430956298828125,9.96945571289062,-0.74699091796875
3.98779229058141,-0.464475122070312,9.95987890625,-0.78529814453125
3.98990022135398,-0.416591088867187,9.95030209960937,-0.809240161132812
3.99200711800112,-0.426167895507812,9.93593688964844,-0.790086547851562
3.99411401464825,-0.45968671875,9.92636008300781,-0.780509741210937
3.99622091129539,-0.445321508789062,9.92636008300781,-0.74699091796875
3.99932047824417,-0.4213794921875,9.95509050292969,-0.78529814453125
4.00242004519295,-0.4213794921875,9.92636008300781,-0.751779321289062
4.00551961214173,-0.435744702148437,9.94072529296875,-0.818816967773437
4.00754383338739,-0.411802685546875,9.94551369628906,-0.790086547851562
4.00956805463305,-0.44053310546875,9.95987890625,-0.790086547851562
4.01159227587871,-0.454898315429687,9.91199487304687,-0.833182177734375
4.01361464968514,-0.44053310546875,9.95030209960937,-0.842758984375
4.01563702349156,-0.44053310546875,9.97424411621094,-0.799663354492188
4.01765939729798,-0.426167895507812,9.90720646972656,-0.751779321289062
4.01966970317906,-0.416591088867187,9.95509050292969,-0.799663354492188
4.02168000906014,-0.44053310546875,9.95987890625,-0.742202514648437
4.02369031494121,-0.4213794921875,9.95030209960937,-0.818816967773437
4.02577740858271,-0.40222587890625,9.93593688964844,-0.828393774414062
4.0278645022242,-0.387860668945312,9.92636008300781,-0.761356127929687
4.02995159586569,-0.387860668945312,9.96466730957031,-0.809240161132812
4.03204520187698,-0.392649072265625,9.96466730957031,-0.775721337890625
4.03413880788826,-0.392649072265625,9.97903251953125,-0.761356127929687
4.03623241389954,-0.378283862304687,9.95030209960937,-0.76614453125
4.038327827311,-0.373495458984375,9.96945571289062,-0.818816967773437
4.04042324072246,-0.373495458984375,9.96466730957031,-0.780509741210937
4.04251865413392,-0.373495458984375,9.96945571289062,-0.770932934570312
4.04460305297832,-0.36391865234375,9.93593688964844,-0.751779321289062
4.04668745182272,-0.32561142578125,9.97424411621094,-0.78529814453125
4.04877185066712,-0.3447650390625,9.95987890625,-0.742202514648437
4.05084111995423,-0.36391865234375,9.94551369628906,-0.790086547851562
4.05291038924134,-0.339976635742188,9.97424411621094,-0.8044517578125
4.05497965852845,-0.378283862304687,9.97903251953125,-0.76614453125
4.05704392404494,-0.387860668945312,9.99339772949219,-0.818816967773437
4.05910818956143,-0.407014282226562,9.94072529296875,-0.794874951171875
4.06117245507793,-0.383072265625,9.96945571289062,-0.74699091796875
4.06327683761916,-0.416591088867187,9.98860932617187,-0.799663354492188
4.06538122016039,-0.40222587890625,9.93593688964844,-0.809240161132812
4.06748560270162,-0.392649072265625,9.98382092285156,-0.818816967773437
4.06959249576803,-0.426167895507812,9.94551369628906,-0.8044517578125
4.07169938883444,-0.4213794921875,9.95030209960937,-0.790086547851562
4.07380628190084,-0.378283862304687,9.96945571289062,-0.770932934570312
4.07591731206577,-0.454898315429687,9.94551369628906,-0.775721337890625
4.0780283422307,-0.416591088867187,9.96945571289062,-0.809240161132812
4.08013937239564,-0.426167895507812,9.92636008300781,-0.718260498046875
4.08217369205709,-0.411802685546875,9.97903251953125,-0.770932934570312
4.08420801171855,-0.416591088867187,9.97903251953125,-0.790086547851562
4.08624233138001,-0.430956298828125,9.96945571289062,-0.799663354492188
4.08819590793166,-0.407014282226562,9.96466730957031,-0.780509741210937
4.09014948448331,-0.4213794921875,9.97424411621094,-0.809240161132812
4.09210306103495,-0.454898315429687,9.99339772949219,-0.828393774414062
4.09411214366299,-0.474051928710937,9.95509050292969,-0.790086547851562
4.09612122629103,-0.407014282226562,9.93593688964844,-0.799663354492188
4.09813030891907,-0.426167895507812,9.97424411621094,-0.818816967773437
4.10013912603062,-0.464475122070312,9.95509050292969,-0.852335791015625
4.10214794314216,-0.426167895507812,9.95987890625,-0.790086547851562
4.10415676025371,-0.454898315429687,9.98382092285156,-0.82360537109375
4.10616487982836,-0.445321508789062,9.95987890625,-0.86191259765625
4.10817299940301,-0.450109912109375,9.95509050292969,-0.818816967773437
4.11018111897766,-0.4213794921875,9.95509050292969,-0.809240161132812
4.11218743093513,-0.474051928710937,9.96466730957031,-0.828393774414062
4.1141937428926,-0.4213794921875,9.97424411621094,-0.857124194335937
4.11620005485006,-0.411802685546875,9.93114848632812,-0.799663354492188
4.11820461697029,-0.435744702148437,9.94072529296875,-0.82360537109375
4.12020917909051,-0.450109912109375,9.93593688964844,-0.842758984375
4.12221374121074,-0.4213794921875,9.93114848632812,-0.82360537109375
4.12428028546801,-0.44053310546875,9.94072529296875,-0.833182177734375
4.12634682972528,-0.445321508789062,9.96466730957031,-0.790086547851562
4.12841337398254,-0.44053310546875,9.93593688964844,-0.818816967773437
4.13046216015604,-0.454898315429687,9.95987890625,-0.794874951171875
4.13251094632955,-0.411802685546875,9.93593688964844,-0.78529814453125
4.13455973250305,-0.416591088867187,9.94072529296875,-0.809240161132812
4.13659585294575,-0.407014282226562,9.92636008300781,-0.833182177734375
4.13863197338846,-0.45968671875,9.883264453125,-0.790086547851562
4.14066809383117,-0.392649072265625,9.96945571289062,-0.814028564453125
4.14270000387891,-0.44053310546875,9.93114848632812,-0.742202514648437
4.14473191392665,-0.426167895507812,9.93593688964844,-0.818816967773437
4.14676382397439,-0.426167895507812,9.92636008300781,-0.790086547851562
4.14878099541537,-0.445321508789062,9.95509050292969,-0.756567724609375
4.15079816685634,-0.454898315429687,9.93114848632812,-0.713472094726562
4.15281533829731,-0.416591088867187,9.94072529296875,-0.790086547851562
4.15498688994662,-0.435744702148437,9.89762966308594,-0.7278373046875
4.15715844159592,-0.392649072265625,9.94072529296875,-0.76614453125
4.15932999324523,-0.454898315429687,9.94551369628906,-0.74699091796875
4.16150253610547,-0.435744702148437,9.94072529296875,-0.775721337890625
4.16367507896571,-0.416591088867187,9.92636008300781,-0.799663354492188
4.16584762182595,-0.44053310546875,9.9215716796875,-0.751779321289062
4.16797717846658,-0.44053310546875,9.91199487304687,-0.790086547851562
4.1701067351072,-0.40222587890625,9.93114848632812,-0.794874951171875
4.17223629174783,-0.411802685546875,9.9215716796875,-0.742202514648437
4.17436717271571,-0.454898315429687,9.96945571289062,-0.723048901367187
4.17649805368359,-0.378283862304687,9.93114848632812,-0.751779321289062
4.17862893465147,-0.4213794921875,9.9215716796875,-0.742202514648437
4.18076145201259,-0.397437475585937,9.93593688964844,-0.751779321289062
4.1828939693737,-0.416591088867187,9.9215716796875,-0.751779321289062
4.18502648673481,-0.387860668945312,9.93593688964844,-0.775721337890625
4.18715950659158,-0.435744702148437,9.94551369628906,-0.703895288085937
4.18929252644835,-0.397437475585937,9.92636008300781,-0.732625708007812
4.19142554630512,-0.416591088867187,9.9215716796875,-0.794874951171875
4.19356087768533,-0.411802685546875,9.94072529296875,-0.737414111328125
4.19569620906554,-0.378283862304687,9.90720646972656,-0.78529814453125
4.19783154044575,-0.4213794921875,9.9215716796875,-0.790086547851562
4.20306773014302,-0.430956298828125,9.93593688964844,-0.790086547851562
4.20830391984029,-0.426167895507812,9.94072529296875,-0.7278373046875
4.21354010953755,-0.4213794921875,9.95030209960937,-0.703895288085937
4.21564847759311,-0.411802685546875,9.95509050292969,-0.703895288085937
4.21775684564867,-0.454898315429687,9.96466730957031,-0.78529814453125
4.21986521370422,-0.4213794921875,9.95509050292969,-0.780509741210937
4.22197602376282,-0.45968671875,9.92636008300781,-0.723048901367187
4.22408683382141,-0.435744702148437,9.91199487304687,-0.703895288085937
4.22619764388,-0.435744702148437,9.94551369628906,-0.794874951171875
4.22827044791646,-0.40222587890625,9.95987890625,-0.828393774414062
4.23034325195292,-0.426167895507812,9.93593688964844,-0.751779321289062
4.23241605598938,-0.392649072265625,9.97424411621094,-0.799663354492188
4.23444816829407,-0.407014282226562,9.95987890625,-0.790086547851562
4.23648028059875,-0.4213794921875,9.93593688964844,-0.74699091796875
4.23851239290344,-0.383072265625,9.94551369628906,-0.790086547851562
4.24060223860657,-0.392649072265625,9.90241806640625,-0.751779321289062
4.24269208430969,-0.397437475585937,9.95987890625,-0.799663354492188
4.24478193001282,-0.44053310546875,9.89762966308594,-0.76614453125
4.24687464518209,-0.430956298828125,9.93114848632812,-0.775721337890625
4.24896736035136,-0.411802685546875,9.90720646972656,-0.814028564453125
4.25106007552064,-0.397437475585937,9.95030209960937,-0.74699091796875
4.25316683371291,-0.383072265625,9.96466730957031,-0.775721337890625
4.25527359190519,-0.411802685546875,9.96945571289062,-0.833182177734375
4.25738035009746,-0.430956298828125,9.95509050292969,-0.799663354492188
4.25945677696378,-0.378283862304687,9.95509050292969,-0.818816967773437
4.2615332038301,-0.4213794921875,9.94551369628906,-0.74699091796875
4.26360963069642,-0.407014282226562,9.95987890625,-0.790086547851562
4.26565370958097,-0.397437475585937,9.95509050292969,-0.770932934570312
4.26769778846552,-0.392649072265625,9.94072529296875,-0.770932934570312
4.26974186735007,-0.383072265625,9.95030209960937,-0.770932934570312
4.27190588975675,-0.373495458984375,9.94072529296875,-0.770932934570312
4.27406991216344,-0.40222587890625,9.95987890625,-0.780509741210937
4.27623393457012,-0.40222587890625,9.93593688964844,-0.814028564453125
4.27839771413826,-0.411802685546875,9.94551369628906,-0.775721337890625
4.2805614937064,-0.4213794921875,9.96945571289062,-0.799663354492188
4.28272527327455,-0.397437475585937,9.96945571289062,-0.814028564453125
4.28488740136699,-0.430956298828125,9.96466730957031,-0.775721337890625
4.28704952945944,-0.411802685546875,9.93593688964844,-0.86191259765625
4.28921165755189,-0.383072265625,9.96945571289062,-0.770932934570312
4.29135123437481,-0.40222587890625,9.95030209960937,-0.809240161132812
4.29349081119773,-0.435744702148437,9.95987890625,-0.775721337890625
4.29563038802064,-0.416591088867187,9.96466730957031,-0.780509741210937
4.29771027875415,-0.416591088867187,9.93114848632812,-0.814028564453125
4.29979016948766,-0.411802685546875,9.97903251953125,-0.814028564453125
4.30187006022116,-0.387860668945312,9.94072529296875,-0.775721337890625
4.3039895295137,-0.407014282226562,9.93114848632812,-0.78529814453125
4.30610899880624,-0.407014282226562,9.96945571289062,-0.732625708007812
4.30822846809877,-0.4213794921875,9.95987890625,-0.780509741210937
4.31031342431622,-0.40222587890625,9.95509050292969,-0.78529814453125
4.31239838053366,-0.435744702148437,9.91678327636719,-0.756567724609375
4.31448333675111,-0.445321508789062,9.9215716796875,-0.8044517578125
4.31959847824417,-0.411802685546875,9.93114848632812,-0.737414111328125
4.32471361973722,-0.392649072265625,9.95030209960937,-0.76614453125
4.32982876123028,-0.392649072265625,9.93114848632812,-0.761356127929687
4.33187663460268,-0.44053310546875,9.91678327636719,-0.78529814453125
4.33392450797507,-0.4213794921875,9.97903251953125,-0.723048901367187
4.33597238134747,-0.378283862304687,9.94551369628906,-0.74699091796875
4.33802214512785,-0.378283862304687,9.92636008300781,-0.756567724609375
4.34007190890823,-0.407014282226562,9.94072529296875,-0.761356127929687
4.34212167268862,-0.392649072265625,9.93114848632812,-0.775721337890625
4.34417417285137,-0.373495458984375,9.95987890625,-0.742202514648437
4.34622667301413,-0.378283862304687,9.95987890625,-0.775721337890625
4.34827917317689,-0.416591088867187,9.92636008300781,-0.751779321289062
4.3503347827689,-0.407014282226562,9.95987890625,-0.6512228515625
4.35239039236092,-0.426167895507812,9.95509050292969,-0.713472094726562
4.35444600195293,-0.392649072265625,9.95509050292969,-0.78529814453125
4.35654386848939,-0.397437475585937,9.97903251953125,-0.732625708007812
4.35864173502584,-0.349553442382812,9.94551369628906,-0.694318481445312
4.3607396015623,-0.392649072265625,9.98382092285156,-0.790086547851562
4.36281815832499,-0.397437475585937,9.95509050292969,-0.814028564453125
4.36489671508769,-0.407014282226562,9.98860932617187,-0.775721337890625
4.36697527185038,-0.368707055664062,9.98860932617187,-0.761356127929687
4.36902631434441,-0.373495458984375,9.98860932617187,-0.732625708007812
4.37107735683844,-0.397437475585937,9.94072529296875,-0.761356127929687
4.37312839933247,-0.378283862304687,9.97903251953125,-0.794874951171875
4.37517181350348,-0.397437475585937,9.98382092285156,-0.770932934570312
4.37721522767449,-0.383072265625,10.0029745361328,-0.751779321289062
4.37925864184549,-0.397437475585937,9.98382092285156,-0.833182177734375
4.38130208070183,-0.430956298828125,9.95987890625,-0.866701000976562
4.38334551955816,-0.40222587890625,9.98382092285156,-0.775721337890625
4.3853889584145,-0.40222587890625,9.97903251953125,-0.74699091796875
4.38757216360113,-0.397437475585937,9.98860932617187,-0.82360537109375
4.38975536878777,-0.383072265625,9.98382092285156,-0.713472094726562
4.3919385739744,-0.397437475585937,9.92636008300781,-0.756567724609375
4.39412912491841,-0.416591088867187,9.96466730957031,-0.7278373046875
4.39631967586242,-0.411802685546875,9.98860932617187,-0.694318481445312
4.39851022680643,-0.368707055664062,9.96466730957031,-0.790086547851562
4.40066975094923,-0.392649072265625,9.94551369628906,-0.8044517578125
4.40282927509202,-0.349553442382812,9.96466730957031,-0.78529814453125
4.40498879923482,-0.430956298828125,9.93114848632812,-0.756567724609375
4.40712594642449,-0.397437475585937,9.94072529296875,-0.76614453125
4.40926309361416,-0.411802685546875,9.96466730957031,-0.74699091796875
4.41140024080383,-0.411802685546875,9.94072529296875,-0.761356127929687
4.41350402416971,-0.4213794921875,9.94072529296875,-0.737414111328125
4.4156078075356,-0.387860668945312,9.94072529296875,-0.761356127929687
4.41771159090148,-0.411802685546875,9.97424411621094,-0.699106884765625
4.41977846270053,-0.354341845703125,9.95987890625,-0.742202514648437
4.42184533449958,-0.4213794921875,9.9215716796875,-0.732625708007812
4.42391220629862,-0.416591088867187,9.95030209960937,-0.751779321289062
4.42597791631381,-0.392649072265625,9.98860932617187,-0.703895288085937
4.42804362632901,-0.430956298828125,9.97424411621094,-0.732625708007812
4.4301093363442,-0.392649072265625,9.95987890625,-0.718260498046875
4.43533431694858,-0.411802685546875,9.95030209960937,-0.751779321289062
4.44055929755296,-0.387860668945312,9.97903251953125,-0.790086547851562
4.44578427815735,-0.387860668945312,9.95987890625,-0.82360537109375
4.44788567659485,-0.411802685546875,9.95987890625,-0.737414111328125
4.44998707503235,-0.435744702148437,9.92636008300781,-0.737414111328125
4.45208847346985,-0.373495458984375,9.94551369628906,-0.74699091796875
4.45419061094815,-0.411802685546875,9.96466730957031,-0.751779321289062
4.45629274842644,-0.44053310546875,9.9215716796875,-0.713472094726562
4.45839488590474,-0.40222587890625,9.93114848632812,-0.770932934570312
4.46045007915561,-0.430956298828125,9.91678327636719,-0.699106884765625
4.46250527240648,-0.411802685546875,9.93593688964844,-0.78529814453125
4.46456046565735,-0.4213794921875,9.95509050292969,-0.751779321289062
4.46659994097202,-0.392649072265625,9.91199487304687,-0.799663354492188
4.46863941628669,-0.435744702148437,9.92636008300781,-0.761356127929687
4.47067889160136,-0.411802685546875,9.95030209960937,-0.833182177734375
4.47278666286872,-0.407014282226562,9.95030209960937,-0.799663354492188
4.47489443413609,-0.407014282226562,9.9215716796875,-0.809240161132812
4.47700220540345,-0.411802685546875,9.93114848632812,-0.809240161132812
4.47911387706143,-0.407014282226562,9.95509050292969,-0.790086547851562
4.48122554871942,-0.397437475585937,9.93114848632812,-0.790086547851562
4.48333722037741,-0.411802685546875,9.94551369628906,-0.756567724609375
4.48544935085701,-0.4213794921875,9.94551369628906,-0.799663354492188
4.48756148133661,-0.416591088867187,9.96466730957031,-0.732625708007812
4.48967361181621,-0.40222587890625,9.96945571289062,-0.794874951171875
4.4917529194334,-0.411802685546875,9.93593688964844,-0.790086547851562
4.49383222705058,-0.383072265625,9.95987890625,-0.742202514648437
4.49591153466777,-0.407014282226562,9.95987890625,-0.770932934570312
4.49795632269945,-0.411802685546875,9.92636008300781,-0.76614453125
4.50000111073113,-0.411802685546875,9.95509050292969,-0.809240161132812
4.50204589876282,-0.392649072265625,9.94551369628906,-0.809240161132812
4.50415178564433,-0.411802685546875,9.94551369628906,-0.837970581054687
4.50625767252584,-0.454898315429687,9.96466730957031,-0.775721337890625
4.50836355940735,-0.426167895507812,9.93114848632812,-0.794874951171875
4.5104724665254,-0.40222587890625,9.93593688964844,-0.742202514648437
4.51258137364346,-0.397437475585937,9.93593688964844,-0.723048901367187
4.51469028076152,-0.430956298828125,9.95030209960937,-0.761356127929687
4.51680249159051,-0.416591088867187,9.91199487304687,-0.799663354492188
4.5189147024195,-0.411802685546875,9.90241806640625,-0.761356127929687
4.5210269132485,-0.430956298828125,9.9215716796875,-0.761356127929687
4.52310497824416,-0.4213794921875,9.92636008300781,-0.780509741210937
4.52518304323982,-0.450109912109375,9.9215716796875,-0.742202514648437
4.52726110823548,-0.426167895507812,9.95030209960937,-0.847547387695312
4.52930297368687,-0.426167895507812,9.94072529296875,-0.761356127929687
4.53134483913826,-0.411802685546875,9.95509050292969,-0.756567724609375
4.53338670458965,-0.426167895507812,9.96945571289062,-0.818816967773437
4.53548785828973,-0.416591088867187,9.96466730957031,-0.775721337890625
4.53758901198982,-0.4213794921875,10.0077629394531,-0.833182177734375
4.53969016568991,-0.435744702148437,9.98860932617187,-0.790086547851562
4.54179252387133,-0.445321508789062,9.95030209960937,-0.775721337890625
4.54389488205276,-0.378283862304687,9.96945571289062,-0.790086547851562
4.54599724023418,-0.407014282226562,9.94551369628906,-0.857124194335937
4.54810056976977,-0.416591088867187,9.98860932617187,-0.761356127929687
4.55020389930536,-0.383072265625,9.98382092285156,-0.78529814453125
4.55230722884095,-0.407014282226562,10.0460701660156,-0.780509741210937
4.55437891775154,-0.373495458984375,9.9981861328125,-0.82360537109375
4.55645060666213,-0.4213794921875,9.94551369628906,-0.737414111328125
4.55852229557273,-0.36391865234375,10.0125513427734,-0.809240161132812
4.56056100976543,-0.373495458984375,10.0125513427734,-0.790086547851562
4.56259972395814,-0.36391865234375,9.96945571289062,-0.8044517578125
4.56463843815085,-0.407014282226562,9.98860932617187,-0.770932934570312
4.56673958403844,-0.426167895507812,9.98382092285156,-0.780509741210937
4.56884072992602,-0.359130249023437,10.0125513427734,-0.756567724609375
4.57094187581361,-0.368707055664062,9.95509050292969,-0.751779321289062
4.57304168180319,-0.387860668945312,9.98382092285156,-0.723048901367187
4.57514148779278,-0.301669409179687,9.98382092285156,-0.756567724609375
4.57724129378236,-0.383072265625,9.9981861328125,-0.732625708007812
4.57934143549243,-0.4213794921875,9.9981861328125,-0.78529814453125
4.5814415772025,-0.387860668945312,10.0029745361328,-0.751779321289062
4.58354171891257,-0.368707055664062,9.96466730957031,-0.751779321289062
4.58561189268644,-0.411802685546875,9.96466730957031,-0.751779321289062
4.58768206646031,-0.407014282226562,10.0125513427734,-0.828393774414062
4.58975224023418,-0.387860668945312,9.98860932617187,-0.775721337890625
4.59179209071161,-0.416591088867187,10.0077629394531,-0.74699091796875
4.59383194118904,-0.397437475585937,10.0221281494141,-0.7278373046875
4.59587179166648,-0.435744702148437,9.97903251953125,-0.780509741210937
4.59814678949633,-0.4213794921875,9.97903251953125,-0.794874951171875
4.6004217873262,-0.426167895507812,9.98382092285156,-0.8044517578125
4.60269678515606,-0.430956298828125,9.97903251953125,-0.770932934570312
4.60494078021899,-0.416591088867187,9.97903251953125,-0.790086547851562
4.60718477528193,-0.426167895507812,9.99339772949219,-0.780509741210937
4.60942877034486,-0.469263525390625,9.95987890625,-0.809240161132812
4.61163848871509,-0.45968671875,9.96466730957031,-0.76614453125
4.61384820708531,-0.464475122070312,9.95030209960937,-0.833182177734375
4.61605792545554,-0.469263525390625,9.95509050292969,-0.833182177734375
4.61826887044251,-0.450109912109375,9.94551369628906,-0.799663354492188
4.62047981542949,-0.474051928710937,9.92636008300781,-0.814028564453125
4.62269076041647,-0.454898315429687,9.96945571289062,-0.809240161132812
4.62490539887133,-0.464475122070312,9.91199487304687,-0.790086547851562
4.62712003732619,-0.469263525390625,9.87368764648437,-0.8810662109375
4.62933467578106,-0.40222587890625,9.89284125976562,-0.828393774414062
4.63155116617819,-0.464475122070312,9.88805285644531,-0.775721337890625
4.63376765657533,-0.426167895507812,9.883264453125,-0.790086547851562
4.63598414697246,-0.450109912109375,9.85932243652344,-0.713472094726562
4.63820611783835,-0.411802685546875,9.89284125976562,-0.78529814453125
4.64042808870424,-0.469263525390625,9.90720646972656,-0.756567724609375
4.64265005957012,-0.426167895507812,9.91678327636719,-0.780509741210937
4.65332314957663,-0.435744702148437,9.90720646972656,-0.718260498046875
4.66399623958314,-0.378283862304687,9.9215716796875,-0.699106884765625
4.67466932958965,-0.407014282226562,9.95030209960937,-0.775721337890625
4.67676930354798,-0.40222587890625,9.91678327636719,-0.7278373046875
4.67886927750632,-0.392649072265625,9.93593688964844,-0.790086547851562
4.68096925146465,-0.378283862304687,9.94551369628906,-0.74699091796875
4.68307002121291,-0.416591088867187,9.93114848632812,-0.761356127929687
4.68517079096118,-0.430956298828125,9.97903251953125,-0.78529814453125
4.68727156070944,-0.387860668945312,9.94551369628906,-0.761356127929687
4.68937270404712,-0.378283862304687,9.97903251953125,-0.742202514648437
4.69147384738479,-0.392649072265625,9.95509050292969,-0.837970581054687
4.69357499072246,-0.392649072265625,9.96945571289062,-0.78529814453125
4.69566770524069,-0.392649072265625,9.99339772949219,-0.8044517578125
4.69776041975892,-0.378283862304687,9.96945571289062,-0.794874951171875
4.69985313427715,-0.392649072265625,9.97903251953125,-0.780509741210937
4.70205661669902,-0.311246215820312,9.9981861328125,-0.775721337890625
4.7042600991209,-0.354341845703125,9.96466730957031,-0.756567724609375
4.70646358154277,-0.354341845703125,9.97424411621094,-0.794874951171875
4.70864356960701,-0.392649072265625,9.96466730957031,-0.74699091796875
4.71082355767124,-0.397437475585937,9.98860932617187,-0.794874951171875
4.71300354573548,-0.44053310546875,9.9981861328125,-0.828393774414062
4.71525064588739,-0.387860668945312,9.9981861328125,-0.775721337890625
4.7174977460393,-0.397437475585937,9.94551369628906,-0.790086547851562
4.7197448461912,-0.397437475585937,9.96466730957031,-0.742202514648437
4.72199464404277,-0.4213794921875,9.96466730957031,-0.7278373046875
4.72424444189433,-0.416591088867187,9.94551369628906,-0.818816967773437
4.72649423974589,-0.387860668945312,9.95509050292969,-0.818816967773437
4.72874275135613,-0.40222587890625,9.97903251953125,-0.780509741210937
4.73099126296637,-0.435744702148437,9.95509050292969,-0.761356127929687
4.73323977457662,-0.435744702148437,9.92636008300781,-0.794874951171875
4.73548625298374,-0.411802685546875,9.93114848632812,-0.76614453125
4.73773273139085,-0.44053310546875,9.94072529296875,-0.818816967773437
4.73997920979797,-0.430956298828125,9.94551369628906,-0.833182177734375
4.74662146283617,-0.450109912109375,9.95987890625,-0.794874951171875
4.75326371587437,-0.416591088867187,9.95509050292969,-0.780509741210937
4.75990596891256,-0.426167895507812,9.94072529296875,-0.780509741210937
4.76203019666864,-0.435744702148437,9.96466730957031,-0.780509741210937
4.76415442442472,-0.411802685546875,9.97903251953125,-0.742202514648437
4.76627865218079,-0.4213794921875,9.98382092285156,-0.809240161132812
4.76840156732836,-0.387860668945312,9.97903251953125,-0.790086547851562
4.77052448247593,-0.397437475585937,9.97424411621094,-0.828393774414062
4.7726473976235,-0.392649072265625,9.97424411621094,-0.770932934570312
4.77697520556621,-0.383072265625,9.93593688964844,-0.770932934570312
4.78130301350892,-0.36391865234375,9.95987890625,-0.82360537109375
4.78563082145162,-0.383072265625,9.99339772949219,-0.761356127929687
4.78781275406881,-0.40222587890625,9.88805285644531,-0.794874951171875
4.78999468668599,-0.383072265625,9.94072529296875,-0.799663354492188
4.79217661930318,-0.373495458984375,9.94551369628906,-0.76614453125
4.79436217659485,-0.3447650390625,9.95030209960937,-0.770932934570312
4.79654773388651,-0.392649072265625,9.95509050292969,-0.809240161132812
4.79873329117818,-0.435744702148437,9.95509050292969,-0.828393774414062
4.80091944449849,-0.373495458984375,9.91678327636719,-0.742202514648437
4.80310559781881,-0.426167895507812,9.94551369628906,-0.814028564453125
4.80529175113912,-0.392649072265625,9.94551369628906,-0.761356127929687
4.80743325108487,-0.454898315429687,9.93114848632812,-0.761356127929687
4.80957475103062,-0.430956298828125,9.94551369628906,-0.794874951171875
4.81171625097636,-0.378283862304687,9.99339772949219,-0.8044517578125
4.81390277397984,-0.354341845703125,9.97903251953125,-0.770932934570312
4.81608929698331,-0.407014282226562,9.95030209960937,-0.756567724609375
4.81827581998678,-0.411802685546875,9.97903251953125,-0.737414111328125
4.82046252815736,-0.373495458984375,9.98860932617187,-0.780509741210937
4.82264923632793,-0.4213794921875,9.95987890625,-0.780509741210937
4.8248359444985,-0.407014282226562,9.99339772949219,-0.78529814453125
4.82702248518861,-0.40222587890625,9.95509050292969,-0.814028564453125
4.82920902587871,-0.359130249023437,9.95030209960937,-0.8044517578125
4.83139556656882,-0.40222587890625,9.95509050292969,-0.818816967773437
4.8335412154946,-0.397437475585937,9.95509050292969,-0.761356127929687
4.83568686442038,-0.359130249023437,9.94072529296875,-0.775721337890625
4.83783251334616,-0.378283862304687,9.95509050292969,-0.770932934570312
4.83995016194642,-0.397437475585937,9.95030209960937,-0.818816967773437
4.84206781054668,-0.383072265625,10.0173397460938,-0.794874951171875
4.84418545914694,-0.387860668945312,9.98860932617187,-0.78529814453125
4.84635092475024,-0.4213794921875,9.96945571289062,-0.828393774414062
4.84851639035354,-0.378283862304687,9.95509050292969,-0.775721337890625
4.85068185595684,-0.392649072265625,9.96466730957031,-0.794874951171875
4.85284989968514,-0.392649072265625,9.97903251953125,-0.790086547851562
4.85501794341344,-0.411802685546875,9.91199487304687,-0.780509741210937
4.85718598714174,-0.4213794921875,9.96466730957031,-0.8044517578125
4.85935392295988,-0.44053310546875,9.96945571289062,-0.799663354492188
4.86152185877802,-0.387860668945312,9.94072529296875,-0.852335791015625
4.86368979459616,-0.416591088867187,9.90720646972656,-0.76614453125
4.86585829926196,-0.40222587890625,9.94072529296875,-0.799663354492188
4.86802680392776,-0.4213794921875,9.93593688964844,-0.78529814453125
4.87019530859356,-0.378283862304687,9.90241806640625,-0.8044517578125
4.87235622119122,-0.430956298828125,9.94072529296875,-0.799663354492188
4.87451713378887,-0.44053310546875,9.96466730957031,-0.723048901367187
4.87667804638653,-0.407014282226562,9.94072529296875,-0.8044517578125
4.87886244748245,-0.430956298828125,9.91199487304687,-0.737414111328125
4.88104684857837,-0.435744702148437,9.94072529296875,-0.799663354492188
4.88323124967429,-0.392649072265625,9.87368764648437,-0.780509741210937
4.88541336371509,-0.373495458984375,9.94072529296875,-0.833182177734375
4.88759547775589,-0.397437475585937,9.94551369628906,-0.775721337890625
4.88977759179669,-0.435744702148437,9.90720646972656,-0.775721337890625
4.89195735036874,-0.430956298828125,9.93593688964844,-0.799663354492188
4.89413710894079,-0.426167895507812,9.94072529296875,-0.790086547851562
4.89631686751283,-0.44053310546875,9.97424411621094,-0.770932934570312
4.89849598866084,-0.44053310546875,9.97424411621094,-0.8044517578125
4.90067510980884,-0.397437475585937,9.95030209960937,-0.74699091796875
4.90285423095685,-0.430956298828125,9.95509050292969,-0.775721337890625
4.9050038606769,-0.44053310546875,9.95030209960937,-0.790086547851562
4.90715349039695,-0.407014282226562,9.95509050292969,-0.78529814453125
4.909303120117,-0.4213794921875,9.91678327636719,-0.799663354492188
4.91148949186179,-0.397437475585937,9.95030209960937,-0.756567724609375
4.91367586360658,-0.469263525390625,9.95987890625,-0.794874951171875
4.91586223535138,-0.411802685546875,9.94072529296875,-0.761356127929687
4.91805431646032,-0.387860668945312,9.94072529296875,-0.76614453125
4.92024639756926,-0.430956298828125,9.9215716796875,-0.780509741210937
4.9224384786782,-0.392649072265625,9.95509050292969,-0.790086547851562
4.92471137950285,-0.407014282226562,9.96466730957031,-0.76614453125
4.92698428032751,-0.407014282226562,9.92636008300781,-0.761356127929687
4.92925718115216,-0.411802685546875,9.95987890625,-0.76614453125
4.9315349748262,-0.397437475585937,9.9215716796875,-0.76614453125
4.93381276850025,-0.392649072265625,9.91678327636719,-0.790086547851562
4.9360905621743,-0.368707055664062,9.96466730957031,-0.82360537109375
4.93833662657317,-0.392649072265625,9.98860932617187,-0.780509741210937
4.94058269097204,-0.392649072265625,9.98860932617187,-0.780509741210937
4.94282875537091,-0.387860668945312,9.93593688964844,-0.775721337890625
4.94504243983272,-0.407014282226562,9.93593688964844,-0.837970581054687
4.94725612429453,-0.411802685546875,9.95030209960937,-0.8044517578125
4.94946980875634,-0.407014282226562,9.93114848632812,-0.699106884765625
4.95168409971771,-0.40222587890625,9.95509050292969,-0.761356127929687
4.95389839067908,-0.368707055664062,9.96945571289062,-0.78529814453125
4.95611268164046,-0.383072265625,9.94551369628906,-0.78529814453125
4.9583279643553,-0.445321508789062,9.95509050292969,-0.809240161132812
4.96054324707014,-0.40222587890625,9.91678327636719,-0.761356127929687
4.96275852978499,-0.36391865234375,9.93593688964844,-0.70868369140625
4.96497399305539,-0.407014282226562,9.95030209960937,-0.799663354492188
4.96718945632579,-0.383072265625,9.95030209960937,-0.756567724609375
4.96940491959619,-0.368707055664062,9.96945571289062,-0.742202514648437
4.97262052416976,-0.416591088867187,9.95030209960937,-0.780509741210937
4.97583612874333,-0.4213794921875,9.95030209960937,-0.751779321289062
4.9790517333169,-0.383072265625,9.95509050292969,-0.794874951171875
4.98114815388982,-0.407014282226562,9.94551369628906,-0.775721337890625
4.98324457446273,-0.430956298828125,9.95030209960937,-0.82360537109375
4.98534099503565,-0.4213794921875,9.94072529296875,-0.74699091796875
4.98743661645492,-0.4213794921875,9.92636008300781,-0.74699091796875
4.98953223787419,-0.378283862304687,9.93114848632812,-0.78529814453125
4.99162785929346,-0.392649072265625,9.94551369628906,-0.837970581054687
4.99372138587766,-0.411802685546875,9.94551369628906,-0.809240161132812
4.99581491246187,-0.397437475585937,9.96945571289062,-0.818816967773437
4.99790843904607,-0.407014282226562,9.95987890625,-0.718260498046875
5.00000105525701,-0.450109912109375,9.94551369628906,-0.794874951171875
5.00209367146794,-0.44053310546875,9.96466730957031,-0.756567724609375
5.00418628767888,-0.426167895507812,9.94072529296875,-0.794874951171875
5.0064209676919,-0.44053310546875,9.93114848632812,-0.732625708007812
5.00865564770492,-0.44053310546875,9.94551369628906,-0.770932934570312
5.01089032771794,-0.411802685546875,9.94072529296875,-0.799663354492188
5.01321049340804,-0.426167895507812,9.95987890625,-0.78529814453125
5.01553065909815,-0.435744702148437,9.96945571289062,-0.814028564453125
5.01785082478825,-0.40222587890625,9.97424411621094,-0.780509741210937
5.02015912178532,-0.411802685546875,9.95509050292969,-0.780509741210937
5.02246741878239,-0.4213794921875,9.94551369628906,-0.818816967773437
5.02477571577946,-0.435744702148437,9.92636008300781,-0.74699091796875
5.02706607695839,-0.416591088867187,9.95030209960937,-0.799663354492188
5.02935643813732,-0.435744702148437,9.95509050292969,-0.790086547851562
5.03164679931624,-0.435744702148437,9.94072529296875,-0.857124194335937
5.03393247618256,-0.426167895507812,9.93593688964844,-0.794874951171875
5.03621815304888,-0.435744702148437,9.94551369628906,-0.742202514648437
5.0385038299152,-0.392649072265625,9.96945571289062,-0.74699091796875
5.04078783311616,-0.407014282226562,9.95987890625,-0.770932934570312
5.04307183631711,-0.392649072265625,9.96466730957031,-0.794874951171875
5.04535583951806,-0.40222587890625,9.96945571289062,-0.78529814453125
5.04763894140608,-0.4213794921875,9.94551369628906,-0.76614453125
5.04992204329411,-0.387860668945312,9.93114848632812,-0.78529814453125
5.05220514518213,-0.387860668945312,9.95030209960937,-0.756567724609375
5.05784701125743,-0.416591088867187,9.9215716796875,-0.732625708007812
5.06348887733274,-0.426167895507812,9.96466730957031,-0.818816967773437
5.06913074340804,-0.426167895507812,9.97424411621094,-0.818816967773437
5.07582378203651,-0.378283862304687,9.93593688964844,-0.742202514648437
5.08251682066498,-0.426167895507812,9.94072529296875,-0.761356127929687
5.08920985929345,-0.40222587890625,9.94551369628906,-0.76614453125
5.09144851576046,-0.416591088867187,9.96466730957031,-0.852335791015625
5.09368717222748,-0.430956298828125,9.94551369628906,-0.780509741210937
5.09592582869449,-0.407014282226562,9.95509050292969,-0.8044517578125
5.09804498678911,-0.411802685546875,9.94551369628906,-0.790086547851562
5.10016414488373,-0.387860668945312,9.97903251953125,-0.770932934570312
5.10228330297835,-0.4213794921875,9.96466730957031,-0.809240161132812
5.10440517450613,-0.411802685546875,9.94551369628906,-0.78529814453125
5.10652704603391,-0.392649072265625,9.96466730957031,-0.756567724609375
5.10864891756169,-0.40222587890625,9.96466730957031,-0.76614453125
5.11077084790023,-0.435744702148437,9.95509050292969,-0.794874951171875
5.11289277823877,-0.354341845703125,9.97424411621094,-0.871489404296875
5.11501470857731,-0.40222587890625,9.94551369628906,-0.780509741210937
5.11719446042193,-0.416591088867187,9.96466730957031,-0.775721337890625
5.11937421226655,-0.435744702148437,9.97903251953125,-0.790086547851562
5.12155396411117,-0.397437475585937,9.98382092285156,-0.737414111328125
5.12373471725787,-0.378283862304687,9.95509050292969,-0.799663354492188
5.12591547040457,-0.40222587890625,9.97424411621094,-0.780509741210937
5.12809622355127,-0.416591088867187,9.95987890625,-0.780509741210937
5.13019958618148,-0.378283862304687,9.94072529296875,-0.790086547851562
5.13230294881169,-0.430956298828125,9.92636008300781,-0.790086547851562
5.13440631144189,-0.407014282226562,9.96466730957031,-0.770932934570312
5.13650739086898,-0.416591088867187,9.93593688964844,-0.76614453125
5.13860847029606,-0.387860668945312,9.95987890625,-0.770932934570312
5.14070954972315,-0.397437475585937,9.93114848632812,-0.699106884765625
5.14296083140718,-0.383072265625,9.94072529296875,-0.723048901367187
5.14521211309121,-0.411802685546875,9.95987890625,-0.723048901367187
5.14746339477524,-0.40222587890625,9.98860932617187,-0.780509741210937
5.14971907185857,-0.397437475585937,9.96466730957031,-0.809240161132812
5.1519747489419,-0.387860668945312,9.90720646972656,-0.756567724609375
5.15423042602524,-0.416591088867187,9.96945571289062,-0.78529814453125
5.15648680710163,-0.40222587890625,9.96466730957031,-0.751779321289062
5.15874318817801,-0.430956298828125,9.98860932617187,-0.78529814453125
5.1609995692544,-0.392649072265625,9.98382092285156,-0.799663354492188
5.16325512703435,-0.383072265625,9.95030209960937,-0.794874951171875
5.1655106848143,-0.411802685546875,9.98860932617187,-0.780509741210937
5.16776624259425,-0.397437475585937,9.98382092285156,-0.8044517578125
5.17002179435206,-0.426167895507812,9.97424411621094,-0.809240161132812
5.17227734610987,-0.426167895507812,9.98860932617187,-0.809240161132812
5.17453289786768,-0.411802685546875,9.97903251953125,-0.742202514648437
5.17678824888765,-0.426167895507812,10.0077629394531,-0.775721337890625
5.17904359990761,-0.454898315429687,9.96945571289062,-0.780509741210937
5.18129895092758,-0.40222587890625,9.96466730957031,-0.7278373046875
5.18918492960596,-0.469263525390625,9.91678327636719,-0.70868369140625
5.19707090828435,-0.392649072265625,9.94072529296875,-0.770932934570312
5.20495688696274,-0.45968671875,9.94551369628906,-0.713472094726562
5.20722432945406,-0.435744702148437,9.93593688964844,-0.770932934570312
5.20949177194538,-0.454898315429687,9.95509050292969,-0.74699091796875
5.2117592144367,-0.40222587890625,9.95030209960937,-0.794874951171875
5.21402748494451,-0.435744702148437,9.96945571289062,-0.751779321289062
5.21629575545233,-0.407014282226562,9.93114848632812,-0.770932934570312
5.21856402596014,-0.445321508789062,9.93114848632812,-0.74699091796875
5.22069402292194,-0.392649072265625,9.94072529296875,-0.790086547851562
5.22282401988375,-0.426167895507812,9.95509050292969,-0.82360537109375
5.22495401684555,-0.426167895507812,9.96466730957031,-0.818816967773437
5.22713174275701,-0.411802685546875,9.92636008300781,-0.82360537109375
5.22930946866847,-0.397437475585937,9.95987890625,-0.809240161132812
5.23148719457993,-0.430956298828125,9.96466730957031,-0.814028564453125
5.2336771128742,-0.378283862304687,9.96466730957031,-0.837970581054687
5.23586703116848,-0.397437475585937,9.98860932617187,-0.78529814453125
5.23805694946275,-0.387860668945312,9.98382092285156,-0.842758984375
5.24029429256171,-0.40222587890625,9.95509050292969,-0.780509741210937
5.24253163566066,-0.392649072265625,9.97903251953125,-0.775721337890625
5.24476897875962,-0.373495458984375,10.0077629394531,-0.809240161132812
5.24700832630736,-0.397437475585937,9.96945571289062,-0.761356127929687
5.24924767385511,-0.397437475585937,9.98860932617187,-0.794874951171875
5.25148702140285,-0.335188232421875,9.98382092285156,-0.790086547851562
5.25374028073444,-0.397437475585937,10.0125513427734,-0.8044517578125
5.25599354006604,-0.354341845703125,9.99339772949219,-0.742202514648437
5.25824679939764,-0.40222587890625,9.99339772949219,-0.818816967773437
5.26050193611639,-0.40222587890625,10.0029745361328,-0.74699091796875
5.26275707283513,-0.378283862304687,10.0269165527344,-0.756567724609375
5.26501220955388,-0.383072265625,10.0125513427734,-0.775721337890625
5.26725602838798,-0.4213794921875,9.98382092285156,-0.756567724609375
5.26949984722207,-0.397437475585937,9.9981861328125,-0.761356127929687
5.27174366605616,-0.392649072265625,10.0125513427734,-0.770932934570312
5.2739718926051,-0.373495458984375,10.0221281494141,-0.833182177734375
5.27620011915404,-0.445321508789062,9.97903251953125,-0.732625708007812
5.27842834570297,-0.407014282226562,9.9981861328125,-0.76614453125
5.2806536054686,-0.411802685546875,10.0173397460938,-0.809240161132812
5.28287886523422,-0.392649072265625,9.95030209960937,-0.76614453125
5.28510412499985,-0.435744702148437,10.036493359375,-0.780509741210937
5.28960738617606,-0.454898315429687,9.90241806640625,-0.761356127929687
5.29411064735228,-0.450109912109375,9.9215716796875,-0.751779321289062
5.2986139085285,-0.45968671875,9.93593688964844,-0.737414111328125
5.3008777609048,-0.469263525390625,9.89762966308594,-0.756567724609375
5.3031416132811,-0.469263525390625,9.95030209960937,-0.732625708007812
5.3054054656574,-0.44053310546875,9.9215716796875,-0.770932934570312
5.30763699441175,-0.430956298828125,9.94072529296875,-0.737414111328125
5.30986852316609,-0.474051928710937,9.93593688964844,-0.732625708007812
5.31210005192043,-0.435744702148437,9.92636008300781,-0.684741674804688
5.31429683544907,-0.45968671875,9.88805285644531,-0.7278373046875
5.31649361897772,-0.469263525390625,9.90241806640625,-0.70868369140625
5.31869040250636,-0.4213794921875,9.86889924316406,-0.799663354492188
5.32094938243258,-0.454898315429687,9.93114848632812,-0.718260498046875
5.32320836235879,-0.44053310546875,9.94551369628906,-0.699106884765625
5.32546734228501,-0.4213794921875,9.9215716796875,-0.76614453125
5.32772948855237,-0.450109912109375,9.92636008300781,-0.742202514648437
5.32999163481973,-0.464475122070312,9.92636008300781,-0.732625708007812
5.33225378108709,-0.450109912109375,9.91678327636719,-0.809240161132812
5.33451658544907,-0.435744702148437,9.94072529296875,-0.737414111328125
5.33677938981105,-0.416591088867187,9.91678327636719,-0.76614453125
5.33904219417303,-0.40222587890625,9.92636008300781,-0.74699091796875
5.34127593912746,-0.44053310546875,9.95509050292969,-0.82360537109375
5.34350968408189,-0.435744702148437,9.91678327636719,-0.82360537109375
5.34574342903631,-0.450109912109375,9.95030209960937,-0.770932934570312
5.34794688926852,-0.469263525390625,9.93114848632812,-0.756567724609375
5.35015034950073,-0.40222587890625,9.92636008300781,-0.790086547851562
5.35235380973293,-0.435744702148437,9.92636008300781,-0.737414111328125
5.35462508599161,-0.407014282226562,9.9215716796875,-0.78529814453125
5.35689636225029,-0.454898315429687,9.94072529296875,-0.74699091796875
5.35916763850897,-0.407014282226562,9.93114848632812,-0.756567724609375
5.36143867968736,-0.426167895507812,9.96466730957031,-0.78529814453125
5.36370972086574,-0.454898315429687,9.91199487304687,-0.76614453125
5.36598076204413,-0.430956298828125,9.92636008300781,-0.703895288085937
5.36825184516045,-0.40222587890625,9.97903251953125,-0.737414111328125
5.37052292827676,-0.4213794921875,9.92636008300781,-0.751779321289062
5.37279401139308,-0.445321508789062,9.95509050292969,-0.737414111328125
5.37509110221339,-0.411802685546875,9.92636008300781,-0.732625708007812
5.37738819303371,-0.426167895507812,9.9215716796875,-0.76614453125
5.37968528385402,-0.416591088867187,9.9215716796875,-0.732625708007812
5.38197319449855,-0.392649072265625,9.93593688964844,-0.847547387695312
5.38426110514308,-0.430956298828125,9.93593688964844,-0.756567724609375
5.38654901578761,-0.411802685546875,9.95987890625,-0.74699091796875
5.38883766981322,-0.416591088867187,9.95509050292969,-0.756567724609375
5.39112632383883,-0.397437475585937,9.95030209960937,-0.74699091796875
5.39341497786443,-0.430956298828125,9.98860932617187,-0.742202514648437
5.39570616395384,-0.416591088867187,10.0077629394531,-0.756567724609375
5.39799735004326,-0.426167895507812,9.95030209960937,-0.799663354492188
5.40028853613267,-0.378283862304687,9.97424411621094,-0.723048901367187
5.402581056966,-0.407014282226562,9.97424411621094,-0.723048901367187
5.40487357779933,-0.4213794921875,9.95987890625,-0.780509741210937
5.40716609863266,-0.435744702148437,9.97903251953125,-0.82360537109375
5.40942654188353,-0.4213794921875,9.99339772949219,-0.780509741210937
5.4116869851344,-0.40222587890625,9.94551369628906,-0.794874951171875
5.41394742838527,-0.387860668945312,9.98860932617187,-0.790086547851562
5.41617559516044,-0.397437475585937,9.95987890625,-0.833182177734375
5.41840376193562,-0.426167895507812,9.95030209960937,-0.74699091796875
5.42063192871079,-0.397437475585937,9.97424411621094,-0.794874951171875
5.42289133544907,-0.373495458984375,9.97424411621094,-0.794874951171875
5.42515074218736,-0.416591088867187,9.98860932617187,-0.732625708007812
5.42741014892564,-0.430956298828125,9.95987890625,-0.723048901367187
5.42966964735229,-0.435744702148437,9.98860932617187,-0.775721337890625
5.43192914577893,-0.416591088867187,9.95987890625,-0.761356127929687
5.43418864420558,-0.387860668945312,9.96466730957031,-0.699106884765625
5.43644775591348,-0.40222587890625,9.94551369628906,-0.751779321289062
5.43870686762138,-0.411802685546875,9.94551369628906,-0.78529814453125
5.44096597932928,-0.407014282226562,9.97424411621094,-0.751779321289062
5.443106599989,-0.426167895507812,9.94551369628906,-0.809240161132812
5.44524722064872,-0.4213794921875,9.96945571289062,-0.751779321289062
5.44738784130845,-0.4213794921875,9.95509050292969,-0.790086547851562
5.44940871028631,-0.4213794921875,9.94072529296875,-0.761356127929687
5.45142957926418,-0.392649072265625,9.97424411621094,-0.761356127929687
5.45345044824204,-0.430956298828125,9.95509050292969,-0.775721337890625
5.45553747005194,-0.445321508789062,9.93593688964844,-0.761356127929687
5.45762449186183,-0.407014282226562,9.95509050292969,-0.770932934570312
5.45971151367173,-0.397437475585937,9.95509050292969,-0.799663354492188
5.46179877473944,-0.411802685546875,9.95987890625,-0.689530078125
5.46388603580715,-0.397437475585937,9.92636008300781,-0.770932934570312
5.46597329687485,-0.454898315429687,9.97903251953125,-0.770932934570312
5.46805799251288,-0.430956298828125,9.95987890625,-0.770932934570312
5.4701426881509,-0.44053310546875,9.98382092285156,-0.770932934570312
5.47222738378892,-0.397437475585937,9.94551369628906,-0.78529814453125
5.47430905984144,-0.411802685546875,9.95030209960937,-0.780509741210937
5.47639073589395,-0.4213794921875,9.96945571289062,-0.794874951171875
5.47847241194647,-0.411802685546875,9.98382092285156,-0.78529814453125
5.48054974386922,-0.387860668945312,9.95030209960937,-0.737414111328125
5.48262707579196,-0.430956298828125,9.93593688964844,-0.761356127929687
5.4847044077147,-0.416591088867187,9.93593688964844,-0.751779321289062
5.48692529103959,-0.392649072265625,9.95030209960937,-0.74699091796875
5.48914617436449,-0.464475122070312,9.95030209960937,-0.732625708007812
5.49136705768938,-0.397437475585937,9.96466730957031,-0.7278373046875
5.49358724558121,-0.392649072265625,9.96466730957031,-0.742202514648437
5.49580743347304,-0.387860668945312,9.96466730957031,-0.737414111328125
5.49802762136487,-0.392649072265625,9.98382092285156,-0.78529814453125
5.50024429709187,-0.387860668945312,9.96466730957031,-0.74699091796875
5.50246097281886,-0.430956298828125,10.0029745361328,-0.751779321289062
5.50467764854586,-0.373495458984375,9.96945571289062,-0.76614453125
5.50688842126601,-0.397437475585937,9.92636008300781,-0.852335791015625
5.50909919398616,-0.416591088867187,9.94551369628906,-0.770932934570312
5.51130996670631,-0.397437475585937,9.94551369628906,-0.814028564453125
5.51351479388489,-0.387860668945312,9.96466730957031,-0.842758984375
5.51571962106347,-0.411802685546875,9.93114848632812,-0.780509741210937
5.51792444824205,-0.407014282226562,9.94551369628906,-0.761356127929687
5.52012776340047,-0.4213794921875,9.96945571289062,-0.7278373046875
5.52233107855889,-0.426167895507812,9.94072529296875,-0.737414111328125
5.52453439371731,-0.397437475585937,9.95030209960937,-0.775721337890625
5.52673684304457,-0.411802685546875,9.94551369628906,-0.8044517578125
5.52893929237182,-0.392649072265625,9.98382092285156,-0.78529814453125
5.53114174169908,-0.450109912109375,9.95509050292969,-0.76614453125
5.5367428130424,-0.411802685546875,9.91678327636719,-0.8044517578125
5.54234388438571,-0.383072265625,9.94072529296875,-0.775721337890625
5.54794495572903,-0.368707055664062,9.95030209960937,-0.814028564453125
5.55005758148858,-0.430956298828125,9.95987890625,-0.8044517578125
5.55217020724812,-0.407014282226562,9.93593688964844,-0.8044517578125
5.55428283300767,-0.445321508789062,9.94072529296875,-0.794874951171875
5.5563969474825,-0.426167895507812,9.95509050292969,-0.74699091796875
5.55851106195732,-0.387860668945312,9.97424411621094,-0.78529814453125
5.56062517643215,-0.411802685546875,9.99339772949219,-0.78529814453125
5.56266945887573,-0.4213794921875,9.94551369628906,-0.775721337890625
5.5647137413193,-0.430956298828125,9.94551369628906,-0.790086547851562
5.56675802376288,-0.407014282226562,9.94072529296875,-0.790086547851562
5.56879909960923,-0.392649072265625,9.91199487304687,-0.837970581054687
5.57084017545559,-0.411802685546875,9.94551369628906,-0.76614453125
5.57288125130194,-0.435744702148437,9.95030209960937,-0.756567724609375
5.57498067176635,-0.40222587890625,9.95030209960937,-0.847547387695312
5.57708009223076,-0.4213794921875,9.93593688964844,-0.756567724609375
5.57917951269517,-0.4213794921875,9.94072529296875,-0.76614453125
5.58128047265611,-0.373495458984375,9.97903251953125,-0.799663354492188
5.58338143261705,-0.445321508789062,9.95509050292969,-0.742202514648437
5.58548239257798,-0.4213794921875,9.97903251953125,-0.74699091796875
5.58758563445081,-0.45968671875,9.93593688964844,-0.775721337890625
5.58968887632364,-0.4213794921875,9.93593688964844,-0.799663354492188
5.59179211819647,-0.450109912109375,9.91199487304687,-0.723048901367187
5.5938966271917,-0.430956298828125,9.94072529296875,-0.742202514648437
5.59600113618692,-0.40222587890625,9.93593688964844,-0.78529814453125
5.59810564518215,-0.4213794921875,9.93593688964844,-0.751779321289062
5.60021154372815,-0.435744702148437,9.96466730957031,-0.814028564453125
5.60231744227416,-0.4213794921875,9.93114848632812,-0.76614453125
5.60442334082017,-0.40222587890625,9.96945571289062,-0.78529814453125
5.60667685058579,-0.445321508789062,9.93593688964844,-0.780509741210937
5.60893036035142,-0.445321508789062,9.95030209960937,-0.732625708007812
5.61118387011704,-0.430956298828125,9.92636008300781,-0.78529814453125
5.61344126529933,-0.407014282226562,9.96466730957031,-0.74699091796875
5.61569866048163,-0.416591088867187,9.94072529296875,-0.799663354492188
5.61795605566392,-0.445321508789062,9.98860932617187,-0.837970581054687
5.62018621853285,-0.430956298828125,9.95030209960937,-0.742202514648437
5.62241638140177,-0.392649072265625,9.91678327636719,-0.799663354492188
5.6246465442707,-0.450109912109375,9.94072529296875,-0.756567724609375
5.62684932042087,-0.4213794921875,9.94551369628906,-0.732625708007812
5.62905209657105,-0.40222587890625,9.96466730957031,-0.833182177734375
5.63125487272122,-0.4213794921875,9.98860932617187,-0.790086547851562
5.63345567100681,-0.435744702148437,9.94551369628906,-0.794874951171875
5.6356564692924,-0.40222587890625,9.97424411621094,-0.756567724609375
5.63785726757799,-0.397437475585937,9.94551369628906,-0.751779321289062
5.64005599544257,-0.450109912109375,9.91678327636719,-0.780509741210937
5.64225472330716,-0.411802685546875,9.98382092285156,-0.770932934570312
5.64445345117174,-0.430956298828125,9.99339772949219,-0.780509741210937
5.65110759906671,-0.392649072265625,9.93593688964844,-0.756567724609375
5.65776174696167,-0.454898315429687,9.95030209960937,-0.780509741210937
5.66441589485664,-0.45968671875,9.95509050292969,-0.78529814453125
5.66661528146688,-0.426167895507812,9.95509050292969,-0.742202514648437
5.66881466807713,-0.450109912109375,9.93114848632812,-0.756567724609375
5.67101405468737,-0.483628735351562,9.95987890625,-0.751779321289062
5.67321486577678,-0.392649072265625,9.93593688964844,-0.82360537109375
5.67541567686619,-0.435744702148437,9.95987890625,-0.780509741210937
5.6776164879556,-0.445321508789062,9.96945571289062,-0.737414111328125
5.67981897341567,-0.416591088867187,9.92636008300781,-0.732625708007812
5.68202145887574,-0.44053310546875,9.99339772949219,-0.756567724609375
5.68422394433581,-0.430956298828125,9.93593688964844,-0.828393774414062
5.68641173936619,-0.4213794921875,9.92636008300781,-0.732625708007812
5.68859953439657,-0.445321508789062,9.94551369628906,-0.7278373046875
5.69078732942695,-0.416591088867187,9.96945571289062,-0.723048901367187
5.69305290516479,-0.454898315429687,9.95030209960937,-0.756567724609375
5.69531848090264,-0.445321508789062,9.97424411621094,-0.790086547851562
5.69758405664049,-0.44053310546875,9.95509050292969,-0.794874951171875
5.69985079199205,-0.411802685546875,9.9215716796875,-0.761356127929687
5.70211752734361,-0.44053310546875,9.96945571289062,-0.775721337890625
5.70438426269517,-0.4213794921875,9.94551369628906,-0.761356127929687
5.70666461404066,-0.45968671875,9.90720646972656,-0.713472094726562
5.70894496538615,-0.450109912109375,9.93593688964844,-0.78529814453125
5.71122531673164,-0.392649072265625,9.93114848632812,-0.76614453125
5.71350570703112,-0.4213794921875,9.94072529296875,-0.809240161132812
5.7157860973306,-0.445321508789062,9.93114848632812,-0.74699091796875
5.71806648763008,-0.44053310546875,9.93114848632812,-0.794874951171875
5.72033522319865,-0.411802685546875,9.94551369628906,-0.8044517578125
5.72260395876723,-0.4213794921875,9.96945571289062,-0.82360537109375
5.7248726943358,-0.407014282226562,9.97903251953125,-0.790086547851562
5.72709570963528,-0.411802685546875,9.93114848632812,-0.718260498046875
5.72931872493476,-0.430956298828125,9.94072529296875,-0.842758984375
5.73154174023424,-0.411802685546875,9.94551369628906,-0.756567724609375
5.73376339236098,-0.435744702148437,9.93593688964844,-0.761356127929687
5.73598504448771,-0.426167895507812,9.95509050292969,-0.8044517578125
5.73820669661445,-0.397437475585937,9.93593688964844,-0.775721337890625
5.74382132812486,-0.397437475585937,9.95987890625,-0.737414111328125
5.74943595963528,-0.392649072265625,9.93114848632812,-0.790086547851562
5.7550505911457,-0.416591088867187,9.93593688964844,-0.761356127929687
5.75727791948771,-0.387860668945312,9.97424411621094,-0.756567724609375
5.75950524782973,-0.4213794921875,9.98382092285156,-0.814028564453125
5.76173257617174,-0.4213794921875,9.98382092285156,-0.723048901367187
5.76392433604587,-0.397437475585937,9.94072529296875,-0.74699091796875
5.76611609592,-0.378283862304687,9.95987890625,-0.770932934570312
5.76830785579413,-0.44053310546875,9.94072529296875,-0.742202514648437
5.77045579600681,-0.40222587890625,9.95987890625,-0.7278373046875
5.77260373621948,-0.387860668945312,9.93593688964844,-0.751779321289062
5.77475167643216,-0.407014282226562,9.94072529296875,-0.780509741210937
5.77685649408624,-0.426167895507812,9.92636008300781,-0.833182177734375
5.77896131174031,-0.387860668945312,9.95987890625,-0.790086547851562
5.78106612939439,-0.4213794921875,9.96466730957031,-0.799663354492188
5.78316748600246,-0.4213794921875,9.95987890625,-0.8044517578125
5.78526884261054,-0.407014282226562,9.97424411621094,-0.799663354492188
5.78737019921861,-0.383072265625,9.94072529296875,-0.857124194335937
5.78953123193345,-0.416591088867187,9.95509050292969,-0.756567724609375
5.79169226464829,-0.44053310546875,9.92636008300781,-0.866701000976562
5.79385329736314,-0.383072265625,9.97424411621094,-0.82360537109375
5.7960139334851,-0.40222587890625,9.96466730957031,-0.809240161132812
5.79817456960706,-0.430956298828125,9.9215716796875,-0.756567724609375
5.80033520572902,-0.392649072265625,9.96945571289062,-0.737414111328125
5.80249461892346,-0.4213794921875,9.95987890625,-0.76614453125
5.80465403211791,-0.464475122070312,9.94072529296875,-0.751779321289062
5.80681344531235,-0.454898315429687,9.95509050292969,-0.751779321289062
5.80897218196599,-0.454898315429687,9.93593688964844,-0.8044517578125
5.81113091861964,-0.430956298828125,9.93114848632812,-0.8044517578125
5.81328965527328,-0.44053310546875,9.90720646972656,-0.78529814453125
5.81543895841456,-0.407014282226562,9.91678327636719,-0.7278373046875
5.81758826155583,-0.4213794921875,9.90720646972656,-0.775721337890625
5.81973756469711,-0.392649072265625,9.95509050292969,-0.809240161132812
5.82200304538287,-0.40222587890625,9.94551369628906,-0.756567724609375
5.82426852606863,-0.454898315429687,9.95509050292969,-0.74699091796875
5.8265340067544,-0.407014282226562,9.97903251953125,-0.718260498046875
5.82880185506169,-0.426167895507812,9.93114848632812,-0.699106884765625
5.83106970336898,-0.454898315429687,9.91678327636719,-0.742202514648437
5.83333755167627,-0.464475122070312,9.99339772949219,-0.76614453125
5.83560845510509,-0.426167895507812,9.90241806640625,-0.82360537109375
5.83787935853391,-0.4213794921875,9.95030209960937,-0.809240161132812
5.84015026196273,-0.435744702148437,9.9215716796875,-0.837970581054687
5.84242179863808,-0.44053310546875,9.9215716796875,-0.775721337890625
5.84469333531342,-0.435744702148437,9.98382092285156,-0.814028564453125
5.84696487198877,-0.4213794921875,9.95987890625,-0.852335791015625
5.84923683162419,-0.4213794921875,9.97424411621094,-0.775721337890625
5.85150879125961,-0.430956298828125,9.94551369628906,-0.780509741210937
5.85378075089502,-0.450109912109375,9.97424411621094,-0.82360537109375
5.85590908401134,-0.445321508789062,9.98382092285156,-0.770932934570312
5.85803741712766,-0.40222587890625,9.95030209960937,-0.794874951171875
5.86016575024398,-0.397437475585937,9.94072529296875,-0.737414111328125
5.86638794729259,-0.445321508789062,9.883264453125,-0.78529814453125
5.8726101443412,-0.430956298828125,9.93593688964844,-0.794874951171875
5.87883234138981,-0.426167895507812,9.91678327636719,-0.751779321289062
5.88093039358165,-0.435744702148437,9.90720646972656,-0.7278373046875
5.88302844577349,-0.445321508789062,9.93593688964844,-0.742202514648437
5.88512649796533,-0.45968671875,9.97424411621094,-0.751779321289062
5.88722564596881,-0.445321508789062,9.93114848632812,-0.790086547851562
5.88932479397228,-0.435744702148437,9.94551369628906,-0.699106884765625
5.89142394197576,-0.426167895507812,9.94551369628906,-0.76614453125
5.89352453398964,-0.430956298828125,9.95030209960937,-0.7278373046875
5.89562512600353,-0.411802685546875,9.98382092285156,-0.794874951171875
5.89772571801742,-0.469263525390625,9.96466730957031,-0.833182177734375
5.89982804572196,-0.435744702148437,9.93593688964844,-0.742202514648437
5.90193037342649,-0.426167895507812,9.93114848632812,-0.780509741210937
5.90403270113103,-0.454898315429687,9.95509050292969,-0.723048901367187
5.90618778442367,-0.435744702148437,9.9981861328125,-0.718260498046875
5.90834286771631,-0.44053310546875,9.94072529296875,-0.794874951171875
5.91049795100896,-0.40222587890625,9.99339772949219,-0.809240161132812
5.91265059037528,-0.40222587890625,9.95030209960937,-0.756567724609375
5.9148032297416,-0.4213794921875,10.0077629394531,-0.828393774414062
5.91695586910792,-0.445321508789062,9.98860932617187,-0.78529814453125
5.91909229412962,-0.40222587890625,9.94551369628906,-0.82360537109375
5.92122871915132,-0.387860668945312,9.99339772949219,-0.809240161132812
5.92336514417302,-0.430956298828125,9.97903251953125,-0.76614453125
5.92548536070948,-0.411802685546875,9.97903251953125,-0.799663354492188
5.92760557724594,-0.445321508789062,9.95987890625,-0.78529814453125
5.9297257937824,-0.40222587890625,9.97903251953125,-0.74699091796875
5.93191015028196,-0.392649072265625,10.0029745361328,-0.790086547851562
5.93409450678153,-0.411802685546875,9.98860932617187,-0.799663354492188
5.93627886328109,-0.416591088867187,9.97903251953125,-0.78529814453125
5.93846149951156,-0.426167895507812,10.0125513427734,-0.790086547851562
5.94064413574203,-0.407014282226562,9.98382092285156,-0.790086547851562
5.9428267719725,-0.397437475585937,9.98860932617187,-0.76614453125
5.94500594259967,-0.397437475585937,9.93114848632812,-0.737414111328125
5.94718511322684,-0.392649072265625,10.0029745361328,-0.756567724609375
5.94936428385401,-0.387860668945312,9.98382092285156,-0.78529814453125
5.95154161843517,-0.397437475585937,9.95509050292969,-0.775721337890625
5.95371895301633,-0.397437475585937,9.93593688964844,-0.775721337890625
5.9558962875975,-0.411802685546875,10.0125513427734,-0.78529814453125
5.95804457145166,-0.416591088867187,9.96945571289062,-0.732625708007812
5.96019285530583,-0.407014282226562,9.92636008300781,-0.756567724609375
5.96234113916,-0.383072265625,9.96466730957031,-0.775721337890625
5.96445999012571,-0.416591088867187,9.93114848632812,-0.790086547851562
5.96657884109142,-0.397437475585937,9.94551369628906,-0.82360537109375
5.96869769205713,-0.445321508789062,9.98382092285156,-0.78529814453125
5.97088234434663,-0.426167895507812,9.95509050292969,-0.8044517578125
5.97306699663613,-0.464475122070312,9.95987890625,-0.780509741210937
5.97525164892562,-0.47884033203125,9.97424411621094,-0.761356127929687
5.97743901350896,-0.469263525390625,9.96945571289062,-0.818816967773437
5.97962637809229,-0.430956298828125,9.92636008300781,-0.82360537109375
5.98181374267562,-0.454898315429687,9.93593688964844,-0.689530078125
5.98392649858925,-0.430956298828125,9.95030209960937,-0.852335791015625
5.98603925450287,-0.469263525390625,9.93593688964844,-0.775721337890625
5.9881520104165,-0.445321508789062,9.9215716796875,-0.78529814453125
5.99018775075938,-0.411802685546875,9.92636008300781,-0.756567724609375
5.99222349110226,-0.464475122070312,9.91199487304687,-0.732625708007812
5.99425923144515,-0.435744702148437,9.89762966308594,-0.751779321289062
5.99629185503455,-0.435744702148437,9.89762966308594,-0.775721337890625
5.99832447862396,-0.483628735351562,9.89762966308594,-0.723048901367187
6.00035710221337,-0.474051928710937,9.94551369628906,-0.718260498046875
6.00245238590478,-0.435744702148437,9.90720646972656,-0.703895288085937
6.00454766959618,-0.464475122070312,9.91199487304687,-0.794874951171875
6.00664295328759,-0.469263525390625,9.9215716796875,-0.8044517578125
6.00873919156884,-0.469263525390625,9.89762966308594,-0.8044517578125
6.01083542985009,-0.44053310546875,9.95509050292969,-0.751779321289062
6.01293166813134,-0.44053310546875,9.94072529296875,-0.770932934570312
6.01503160557708,-0.407014282226562,9.95509050292969,-0.809240161132812
6.01713154302283,-0.445321508789062,9.9215716796875,-0.737414111328125
6.01923148046858,-0.454898315429687,9.93114848632812,-0.794874951171875
6.02132822871438,-0.44053310546875,9.91199487304687,-0.684741674804688
6.02342497696019,-0.44053310546875,9.91678327636719,-0.790086547851562
6.02552172520599,-0.416591088867187,9.91199487304687,-0.756567724609375
6.0275988678022,-0.387860668945312,9.94072529296875,-0.742202514648437
6.02967601039841,-0.426167895507812,9.90241806640625,-0.794874951171875
6.03175315299462,-0.435744702148437,9.93114848632812,-0.833182177734375
6.03394824419471,-0.407014282226562,9.93593688964844,-0.756567724609375
6.03614333539479,-0.445321508789062,9.95030209960937,-0.718260498046875
6.03833842659488,-0.430956298828125,9.93114848632812,-0.794874951171875
6.04051989067908,-0.411802685546875,9.94072529296875,-0.775721337890625
6.04270135476328,-0.430956298828125,9.92636008300781,-0.751779321289062
6.04488281884748,-0.44053310546875,9.883264453125,-0.78529814453125
6.04706027327456,-0.416591088867187,9.95030209960937,-0.794874951171875
6.04923772770164,-0.435744702148437,9.96466730957031,-0.775721337890625
6.05141518212872,-0.4213794921875,9.93593688964844,-0.799663354492188
6.05359105094383,-0.450109912109375,9.97903251953125,-0.742202514648437
6.05576691975894,-0.435744702148437,9.91678327636719,-0.770932934570312
6.05794278857404,-0.445321508789062,9.97424411621094,-0.8044517578125
6.06011705333099,-0.426167895507812,9.92636008300781,-0.790086547851562
6.06229131808793,-0.454898315429687,9.93114848632812,-0.756567724609375
6.06446558284487,-0.435744702148437,9.93593688964844,-0.814028564453125
6.06658525526241,-0.416591088867187,9.99339772949219,-0.742202514648437
6.06870492767994,-0.426167895507812,9.91199487304687,-0.78529814453125
6.07082460009748,-0.435744702148437,9.95509050292969,-0.751779321289062
6.07714130550112,-0.4213794921875,9.96466730957031,-0.761356127929687
6.08345801090477,-0.383072265625,9.9215716796875,-0.818816967773437
6.08977471630842,-0.44053310546875,9.96466730957031,-0.799663354492188
6.09186724202456,-0.411802685546875,9.96945571289062,-0.799663354492188
6.09395976774071,-0.387860668945312,9.98382092285156,-0.78529814453125
6.09605229345685,-0.4213794921875,9.97424411621094,-0.78529814453125
6.09814739545338,-0.383072265625,9.94072529296875,-0.723048901367187
6.10024249744991,-0.445321508789062,9.93593688964844,-0.7278373046875
6.10233759944644,-0.454898315429687,9.96466730957031,-0.780509741210937
6.10443274517126,-0.426167895507812,9.93593688964844,-0.723048901367187
6.10652789089609,-0.435744702148437,9.93593688964844,-0.756567724609375
6.10862303662092,-0.445321508789062,9.97424411621094,-0.78529814453125
6.11071778423377,-0.40222587890625,9.91199487304687,-0.74699091796875
6.11281253184661,-0.416591088867187,9.95030209960937,-0.74699091796875
6.11490727945946,-0.454898315429687,9.91678327636719,-0.794874951171875
6.11706635074853,-0.416591088867187,9.96945571289062,-0.76614453125
6.11922542203759,-0.430956298828125,9.94072529296875,-0.775721337890625
6.12138449332666,-0.411802685546875,9.89762966308594,-0.732625708007812
6.12352807948117,-0.430956298828125,9.89284125976562,-0.74699091796875
6.12567166563568,-0.416591088867187,9.93114848632812,-0.814028564453125
6.1278152517902,-0.464475122070312,9.9215716796875,-0.78529814453125
6.12994243657752,-0.387860668945312,9.93593688964844,-0.74699091796875
6.13206962136485,-0.411802685546875,9.95509050292969,-0.770932934570312
6.13419680615218,-0.426167895507812,9.9215716796875,-0.82360537109375
6.13632191845686,-0.416591088867187,9.94551369628906,-0.8044517578125
6.13844703076155,-0.387860668945312,9.97903251953125,-0.737414111328125
6.14057214306624,-0.430956298828125,9.93114848632812,-0.76614453125
6.14269687147335,-0.430956298828125,9.95509050292969,-0.775721337890625
6.14482159988047,-0.445321508789062,9.94551369628906,-0.799663354492188
6.14694632828759,-0.40222587890625,9.92636008300781,-0.814028564453125
6.14920020090044,-0.450109912109375,9.97424411621094,-0.737414111328125
6.15145407351329,-0.368707055664062,9.96466730957031,-0.751779321289062
6.15370794612613,-0.373495458984375,9.95030209960937,-0.723048901367187
6.15590231819644,-0.407014282226562,9.94551369628906,-0.799663354492188
6.15809669026676,-0.426167895507812,9.94551369628906,-0.78529814453125
6.16029106233707,-0.416591088867187,9.94072529296875,-0.790086547851562
6.16249592876502,-0.378283862304687,9.94072529296875,-0.756567724609375
6.16470079519297,-0.368707055664062,9.94072529296875,-0.737414111328125
6.16690566162092,-0.392649072265625,9.94072529296875,-0.76614453125
6.16911093375633,-0.368707055664062,9.93114848632812,-0.775721337890625
6.17131620589175,-0.392649072265625,9.95030209960937,-0.770932934570312
6.17352147802717,-0.430956298828125,9.95030209960937,-0.751779321289062
6.17572853249766,-0.407014282226562,9.96945571289062,-0.770932934570312
6.17793558696814,-0.416591088867187,9.97903251953125,-0.76614453125
6.18014264143863,-0.426167895507812,9.95987890625,-0.761356127929687
6.18234861973724,-0.40222587890625,9.95509050292969,-0.799663354492188
6.18455459803585,-0.392649072265625,9.93114848632812,-0.799663354492188
6.18676057633446,-0.40222587890625,9.95030209960937,-0.794874951171875
6.19323663514522,-0.407014282226562,9.96466730957031,-0.8044517578125
6.19971269395599,-0.416591088867187,9.97424411621094,-0.775721337890625
6.20618875276675,-0.397437475585937,9.97903251953125,-0.790086547851562
6.20830568267126,-0.45968671875,9.97903251953125,-0.794874951171875
6.21042261257578,-0.407014282226562,9.9215716796875,-0.86191259765625
6.21253954248029,-0.407014282226562,9.96945571289062,-0.847547387695312
6.21463850884314,-0.397437475585937,9.97903251953125,-0.857124194335937
6.21673747520599,-0.44053310546875,9.99339772949219,-0.780509741210937
6.21883644156883,-0.411802685546875,9.96945571289062,-0.770932934570312
6.22094882405581,-0.430956298828125,10.0173397460938,-0.799663354492188
6.22306120654279,-0.407014282226562,9.95987890625,-0.78529814453125
6.22517358902977,-0.387860668945312,9.95987890625,-0.82360537109375
6.22728573529713,-0.407014282226562,9.95987890625,-0.82360537109375
6.22939788156449,-0.407014282226562,9.95987890625,-0.780509741210937
6.23151002783185,-0.445321508789062,9.97424411621094,-0.82360537109375
6.23366291802282,-0.44053310546875,9.99339772949219,-0.837970581054687
6.2358158082138,-0.411802685546875,9.95509050292969,-0.74699091796875
6.23796869840477,-0.397437475585937,9.94551369628906,-0.761356127929687
6.2401211489256,-0.411802685546875,9.98860932617187,-0.837970581054687
6.24227359944644,-0.416591088867187,9.90720646972656,-0.775721337890625
6.24442604996727,-0.469263525390625,9.91678327636719,-0.761356127929687
6.24672737809227,-0.435744702148437,9.95030209960937,-0.74699091796875
6.24902870621727,-0.407014282226562,9.98382092285156,-0.790086547851562
6.25133003434227,-0.44053310546875,9.95030209960937,-0.74699091796875
6.25360582665998,-0.450109912109375,9.89762966308594,-0.718260498046875
6.25588161897769,-0.435744702148437,9.95987890625,-0.780509741210937
6.2581574112954,-0.44053310546875,9.95509050292969,-0.770932934570312
6.26043503651241,-0.450109912109375,9.96466730957031,-0.780509741210937
6.26271266172943,-0.430956298828125,9.95987890625,-0.82360537109375
6.26499028694644,-0.430956298828125,9.94551369628906,-0.732625708007812
6.26726935172509,-0.464475122070312,9.93114848632812,-0.794874951171875
6.26954841650373,-0.426167895507812,9.95030209960937,-0.770932934570312
6.27182748128238,-0.407014282226562,9.94551369628906,-0.737414111328125
6.27410723464609,-0.40222587890625,9.95509050292969,-0.76614453125
6.27638698800981,-0.40222587890625,9.91678327636719,-0.8044517578125
6.27866674137352,-0.407014282226562,9.93593688964844,-0.828393774414062
