timestamp,accel_x (m/s2),accel_y (m/s2),accel_z (m/s2)
0.00242208854166629,-0.296881005859375,8.75320126953125,5.11880314941406
0.00484417708333259,-0.253785375976562,8.72925925292969,5.12359155273437
0.00726626562499888,-0.263362182617187,8.76756647949219,5.12359155273437
0.0121203808593743,-0.3064578125,8.7723548828125,5.09007272949219
0.0169744960937498,-0.24899697265625,8.76277807617187,5.16189877929687
0.0218286113281252,-0.272938989257812,8.78193168945312,5.06613071289062
0.0266841903211841,-0.272938989257812,8.79629689941406,5.13795676269531
0.031539769314243,-0.282515795898438,8.81545051269531,5.13795676269531
0.0363953483073018,-0.258573779296875,8.84418093261719,5.11401474609375
0.0413175579427213,-0.239420166015625,8.82023891601562,5.12837995605469
0.0462397675781408,-0.263362182617187,8.810662109375,5.11401474609375
0.0511619772135603,-0.239420166015625,8.810662109375,5.15232197265625
0.0560863848741514,-0.220266552734375,8.810662109375,5.12359155273437
0.0610107925347426,-0.244208569335937,8.78672009277344,5.15232197265625
0.0659352001953337,-0.225054956054687,8.82981572265625,5.10922634277344
0.0708618976779742,-0.21068974609375,8.80108530273437,5.09964953613281
0.0757885951606146,-0.220266552734375,8.78672009277344,5.14274516601562
0.0807152926432551,-0.215478149414062,8.76756647949219,5.133168359375
0.0856440425347505,-0.201112939453125,8.7723548828125,5.1714755859375
0.090572792426246,-0.201112939453125,8.72925925292969,5.13795676269531
0.0955015423177414,-0.225054956054687,8.72447084960938,5.21457121582031
0.100432164496565,-0.196324536132812,8.71010563964844,5.20020600585937
0.105362786675388,-0.196324536132812,8.71968244628906,5.18584079589844
0.110293408854211,-0.186747729492187,8.68137521972656,5.1714755859375
0.115293830295184,-0.205901342773437,8.67179841308594,5.133168359375
0.120294251736157,-0.205901342773437,8.66222160644531,5.08049592285156
0.12529467317713,-0.177170922851562,8.657433203125,5.15711037597656
0.130299917860292,-0.181959326171875,8.65264479980469,5.16189877929687
0.135305162543453,-0.196324536132812,8.6191259765625,5.133168359375
0.140310407226615,-0.177170922851562,8.57603034667969,5.15711037597656
0.145320705620712,-0.167594116210937,8.55687673339844,5.19062919921875
0.150331004014809,-0.177170922851562,8.56166513671875,5.09964953613281
0.155341302408907,-0.181959326171875,8.55208833007812,5.21457121582031
0.160353583333387,-0.17238251953125,8.53293471679688,5.18584079589844
0.165365864257867,-0.162805712890625,8.51856950683594,5.15711037597656
0.170378145182347,-0.177170922851562,8.53772312011719,5.16668718261719
0.175392266167594,-0.167594116210937,8.5425115234375,5.18584079589844
0.18040638715284,-0.17238251953125,8.50899270019531,5.17626398925781
0.185420508138087,-0.138863696289063,8.54729992675781,5.16189877929687
0.19049858875875,-0.148440502929687,8.51378110351562,5.20499440917969
0.195576669379413,-0.15322890625,8.49941589355469,5.23851323242187
0.200654750000076,-0.148440502929687,8.52814631347656,5.17626398925781
0.205736731011363,-0.15322890625,8.50899270019531,5.16189877929687
0.21081871202265,-0.162805712890625,8.5425115234375,5.14753356933594
0.215900693033937,-0.21068974609375,8.51856950683594,5.17626398925781
0.220987444770048,-0.129286889648437,8.51856950683594,5.19541760253906
0.226074196506159,-0.181959326171875,8.54729992675781,5.1714755859375
0.23116094824227,-0.162805712890625,8.51378110351562,5.27203205566406
0.236252301974912,-0.186747729492187,8.55208833007812,5.21935961914062
0.241343655707555,-0.196324536132812,8.51378110351562,5.20020600585937
0.246435009440198,-0.225054956054687,8.504204296875,5.30555087890625
0.25153089550791,-0.225054956054687,8.49462749023438,5.27682045898437
0.256626781575622,-0.196324536132812,8.49462749023438,5.23372482910156
0.261722667643333,-0.186747729492187,8.56166513671875,5.24330163574219
0.266880765408092,-0.1915361328125,8.53293471679688,5.21935961914062
0.27203886317285,-0.220266552734375,8.52335791015625,5.33428129882812
0.277196960937609,-0.282515795898438,8.56166513671875,5.29118566894531
0.282358550238823,-0.239420166015625,8.59518395996094,5.26245524902344
0.287520139540038,-0.220266552734375,8.59518395996094,5.23372482910156
0.292681728841252,-0.24899697265625,8.59039555664062,5.24330163574219
0.297848927625976,-0.28730419921875,8.55687673339844,5.25766684570312
0.303016126410699,-0.263362182617187,8.56166513671875,5.25766684570312
0.308183325195422,-0.234631762695312,8.57603034667969,5.30555087890625
0.313352812500111,-0.229843359375,8.54729992675781,5.286397265625
0.3185222998048,-0.296881005859375,8.53293471679688,5.28160886230469
0.323691787109489,-0.301669409179687,8.56166513671875,5.31033928222656
0.328863144531366,-0.277727392578125,8.55208833007812,5.29118566894531
0.334034501953243,-0.296881005859375,8.55687673339844,5.35822331542969
0.33920585937512,-0.3064578125,8.55687673339844,5.31991608886719
0.344440483181546,-0.28730419921875,8.57124194335938,5.27682045898437
0.349675106987971,-0.301669409179687,8.57603034667969,5.33906970214844
0.354909730794397,-0.3064578125,8.57603034667969,5.37737692871094
0.360146967773566,-0.296881005859375,8.56645354003906,5.29597407226562
0.365384204752736,-0.258573779296875,8.59997236328125,5.32949289550781
0.370621441731906,-0.28730419921875,8.56645354003906,5.35822331542969
0.375860141710208,-0.316034619140625,8.53772312011719,5.3247044921875
0.38109884168851,-0.301669409179687,8.58081875,5.34864650878906
0.386337541666812,-0.263362182617187,8.59039555664062,5.3247044921875
0.391578243706744,-0.301669409179687,8.59997236328125,5.36301171875
0.396818945746676,-0.277727392578125,8.56166513671875,5.38695373535156
0.402059647786608,-0.32561142578125,8.57124194335938,5.40610734863281
0.407301904080012,-0.2681505859375,8.54729992675781,5.30555087890625
0.412544160373417,-0.277727392578125,8.56645354003906,5.37258852539062
0.417786416666821,-0.28730419921875,8.58560715332031,5.37737692871094
0.423102835720644,-0.258573779296875,8.60476076660156,5.37258852539062
0.428419254774466,-0.28730419921875,8.55208833007812,5.38695373535156
0.433735673828288,-0.229843359375,8.58081875,5.41568415527344
0.43905873198801,-0.311246215820312,8.55687673339844,5.32949289550781
0.444381790147733,-0.24899697265625,8.55208833007812,5.36780012207031
0.449704848307455,-0.277727392578125,8.5425115234375,5.42526096191406
0.455030205946346,-0.3064578125,8.52335791015625,5.42526096191406
0.460355563585236,-0.277727392578125,8.504204296875,5.39174213867187
0.465680921224127,-0.282515795898438,8.53772312011719,5.41089575195312
0.471008176323956,-0.263362182617187,8.53293471679688,5.40610734863281
0.476335431423784,-0.296881005859375,8.53772312011719,5.45877978515625
0.481662686523613,-0.24899697265625,8.53293471679688,5.34864650878906
0.486991270182469,-0.258573779296875,8.53293471679688,5.45877978515625
0.492319853841326,-0.239420166015625,8.56166513671875,5.42526096191406
0.497648437500182,-0.253785375976562,8.57603034667969,5.39174213867187
0.503040602864765,-0.220266552734375,8.56166513671875,5.41568415527344
0.508432768229348,-0.244208569335937,8.57124194335938,5.39653054199219
0.513824933593931,-0.234631762695312,8.50899270019531,5.33906970214844
0.519219826714592,-0.229843359375,8.55687673339844,5.45877978515625
0.524614719835254,-0.258573779296875,8.56166513671875,5.42047255859375
0.530009612955915,-0.220266552734375,8.5425115234375,5.44441457519531
0.535406949327445,-0.201112939453125,8.53293471679688,5.439626171875
0.540804285698975,-0.181959326171875,8.53293471679688,5.41089575195312
0.546201622070505,-0.17238251953125,8.56645354003906,5.48272180175781
0.551600497287521,-0.225054956054687,8.52814631347656,5.516240625
0.556999372504537,-0.21068974609375,8.56645354003906,5.44920297851562
0.562398247721553,-0.215478149414062,8.51856950683594,5.52581743164062
0.5677983374568,-0.167594116210937,8.52814631347656,5.47314499511719
0.573198427192047,-0.196324536132812,8.50899270019531,5.45877978515625
0.578598516927293,-0.186747729492187,8.49462749023438,5.51145222167969
0.584067029839623,-0.196324536132812,8.48505068359375,5.46356818847656
0.589535542751953,-0.1915361328125,8.48026228027344,5.47314499511719
0.595004055664283,-0.148440502929687,8.46110866699219,5.45399138183594
0.600477546441195,-0.124498486328125,8.47547387695312,5.50187541503906
0.605951037218108,-0.17238251953125,8.48026228027344,5.44920297851562
0.61142452799502,-0.17238251953125,8.43716665039062,5.4779333984375
0.616900501736341,-0.148440502929687,8.42758984375,5.49708701171875
0.622376475477663,-0.1915361328125,8.42280144042969,5.48272180175781
0.627852449218985,-0.167594116210937,8.43237824707031,5.50666381835937
0.633331874023675,-0.13407529296875,8.40364782714844,5.41568415527344
0.638811298828365,-0.158017309570312,8.38449421386719,5.35822331542969
0.644290723633056,-0.13407529296875,8.35576379394531,5.30076247558594
0.649776483073161,-0.162805712890625,8.37491740722656,5.29118566894531
0.655262242513267,-0.143652099609375,8.350975390625,5.25766684570312
0.660748001953372,-0.105344873046875,8.28393774414062,5.27203205566406
0.666295078667784,-0.0622492431640625,8.27914934082031,5.24330163574219
0.671842155382196,-0.0814028564453125,8.28393774414062,5.25766684570312
0.677389232096608,-0.076614453125,8.25999572753906,5.26245524902344
0.682938170790187,0.009576806640625,8.25999572753906,5.25287844238281
0.688487109483766,0.0814028564453125,8.20253488769531,5.3247044921875
0.694036048177345,0.1149216796875,8.15465085449219,5.31512768554687
0.69958637684488,0.148440502929687,8.16422766113281,5.31512768554687
0.705136705512414,0.162805712890625,8.14986245117187,5.28160886230469
0.710687034179948,0.177170922851562,8.14986245117187,5.31991608886719
0.716238587999392,0.15322890625,8.20253488769531,5.22893642578125
0.721790141818836,0.196324536132812,8.22168850097656,5.25766684570312
0.72734169563828,0.215478149414062,8.28872614746094,5.20499440917969
0.732895238607031,0.158017309570312,8.36055219726562,5.18105239257812
0.738448781575781,0.148440502929687,8.40843623046875,5.14753356933594
0.744002324544532,0.110133276367187,8.42758984375,5.11401474609375
0.749627317817103,0.0814028564453125,8.48983908691406,5.12837995605469
0.755252311089675,0.0814028564453125,8.53293471679688,5.19062919921875
0.760877304362246,0.0239420166015625,8.57603034667969,5.15232197265625
0.766504469835337,-0.0143652099609375,8.53772312011719,5.19062919921875
0.772131635308429,-0.0143652099609375,8.56645354003906,5.2480900390625
0.77775880078152,-0.0143652099609375,8.53293471679688,5.26724365234375
0.783387693576659,-0.0622492431640625,8.55208833007812,5.26724365234375
0.789016586371799,-0.05746083984375,8.51856950683594,5.23851323242187
0.794645479166938,-0.124498486328125,8.49941589355469,5.22893642578125
0.800275683159993,-0.129286889648437,8.52814631347656,5.2480900390625
0.805905887153048,-0.17238251953125,8.53772312011719,5.25287844238281
0.811536091146102,-0.220266552734375,8.54729992675781,5.20020600585937
0.817168195855305,-0.1915361328125,8.59997236328125,5.2480900390625
0.822800300564507,-0.143652099609375,8.63827958984375,5.23372482910156
0.828432405273709,-0.17238251953125,8.657433203125,5.21935961914062
0.83413668088135,-0.143652099609375,8.68137521972656,5.23851323242187
0.839840956488992,-0.138863696289063,8.70531723632812,5.21935961914062
0.845545232096633,-0.15322890625,8.76277807617187,5.2480900390625
0.851252196614863,-0.143652099609375,8.79150849609375,5.23372482910156
0.856959161133093,-0.138863696289063,8.87291135253906,5.29597407226562
0.862666125651323,-0.15322890625,8.88248815917969,5.29118566894531
0.868375933377017,-0.17238251953125,8.8872765625,5.30076247558594
0.874085741102711,-0.17238251953125,8.90164177246094,5.286397265625
0.879795548828405,-0.181959326171875,8.90164177246094,5.29118566894531
0.885507517469901,-0.177170922851562,8.9255837890625,5.23372482910156
0.891219486111398,-0.1915361328125,8.95431420898437,5.23851323242187
0.896931454752895,-0.201112939453125,8.94473740234375,5.23372482910156
0.902645345052375,-0.148440502929687,8.93516059570312,5.24330163574219
0.908359235351855,-0.162805712890625,8.90164177246094,5.23851323242187
0.914073125651335,-0.138863696289063,8.94473740234375,5.26245524902344
0.919856757378765,-0.0814028564453125,8.89685336914062,5.26245524902344
0.925640389106195,-0.13407529296875,8.85854614257812,5.25287844238281
0.931424020833624,-0.100556469726563,8.82981572265625,5.26724365234375
0.937212576714702,-0.1149216796875,8.87291135253906,5.286397265625
0.94300113259578,-0.119710083007812,8.78672009277344,5.29597407226562
0.948789688476857,-0.0718260498046875,8.74362446289062,5.34864650878906
0.954580250976858,-0.110133276367187,8.73883605957031,5.30555087890625
0.960370813476859,-0.138863696289063,8.76277807617187,5.30555087890625
0.96616137597686,-0.148440502929687,8.7723548828125,5.30555087890625
0.971953800890056,-0.177170922851562,8.74362446289062,5.2480900390625
0.977746225803251,-0.13407529296875,8.77714328613281,5.27682045898437
0.983538650716447,-0.21068974609375,8.76756647949219,5.30555087890625
0.989332988173044,-0.205901342773437,8.78193168945312,5.3247044921875
0.995127325629641,-0.229843359375,8.7723548828125,5.34385810546875
1.00092166308624,-0.201112939453125,8.73404765625,5.31991608886719
1.00678509309926,-0.205901342773437,8.75320126953125,5.32949289550781
1.01264852311228,-0.24899697265625,8.6957404296875,5.32949289550781
1.01851195312531,-0.1915361328125,8.66222160644531,5.33428129882812
1.02437903602461,-0.21068974609375,8.62391437988281,5.38695373535156
1.03024611892391,-0.229843359375,8.60954916992188,5.35822331542969
1.03611320182322,-0.21068974609375,8.59997236328125,5.33428129882812
1.04198741373728,-0.239420166015625,8.5425115234375,5.35343491210937
1.04786162565134,-0.205901342773437,8.53293471679688,5.33906970214844
1.05373583756541,-0.201112939453125,8.49462749023438,5.37258852539062
1.05961234006107,-0.205901342773437,8.47547387695312,5.37258852539062
1.06548884255673,-0.234631762695312,8.45632026367188,5.35822331542969
1.07136534505239,-0.215478149414062,8.48505068359375,5.39653054199219
1.07724368619823,-0.1915361328125,8.44674345703125,5.28160886230469
1.08312202734406,-0.24899697265625,8.44674345703125,5.39653054199219
1.0890003684899,-0.201112939453125,8.50899270019531,5.36780012207031
1.09493934754806,-0.205901342773437,8.48983908691406,5.33428129882812
1.10087832660622,-0.24899697265625,8.47547387695312,5.36301171875
1.10681730566439,-0.215478149414062,8.45632026367188,5.31033928222656
1.11275912239616,-0.186747729492187,8.48983908691406,5.36301171875
1.11870093912793,-0.201112939453125,8.48983908691406,5.42526096191406
1.1246427558597,-0.205901342773437,8.43237824707031,5.39653054199219
1.13058753190137,-0.186747729492187,8.43237824707031,5.41089575195312
1.13653230794304,-0.162805712890625,8.41801303710938,5.41568415527344
1.14247708398471,-0.13407529296875,8.42280144042969,5.40610734863281
1.14842396994391,-0.124498486328125,8.3892826171875,5.39174213867187
1.15437085590312,-0.105344873046875,8.39407102050781,5.43004936523437
1.16031774186232,-0.119710083007812,8.41322463378906,5.45877978515625
1.1662683399526,-0.0909796630859375,8.42280144042969,5.41089575195312
1.17221893804288,-0.076614453125,8.3892826171875,5.37737692871094
1.17816953613316,-0.076614453125,8.37970581054688,5.49229860839844
1.18418646006979,-0.0335188232421875,8.38449421386719,5.44441457519531
1.19020338400643,-0.0526724365234375,8.38449421386719,5.47314499511719
1.19622030794306,-0.01915361328125,8.41322463378906,5.46356818847656
1.20223986100295,-0.0383072265625,8.40364782714844,5.46356818847656
1.20825941406285,-0.0383072265625,8.37970581054688,5.44920297851562
1.21427896712274,-0.028730419921875,8.43716665039062,5.47314499511719
1.22030184971823,-0.0622492431640625,8.42280144042969,5.47314499511719
1.22632473231372,-0.0335188232421875,8.42280144042969,5.45877978515625
1.23234761490921,-0.0383072265625,8.42758984375,5.45877978515625
1.23837257671476,-0.047884033203125,8.38449421386719,5.46356818847656
1.24439753852032,-0.05746083984375,8.40843623046875,5.44441457519531
1.25042250032588,-0.067037646484375,8.38449421386719,5.44920297851562
1.25644929318612,-0.0909796630859375,8.36534060058594,5.46356818847656
1.26247608604636,-0.076614453125,8.36534060058594,5.51145222167969
1.26850287890661,-0.0814028564453125,8.37012900390625,5.4013189453125
1.27459861056894,-0.148440502929687,8.39407102050781,5.44441457519531
1.28069434223126,-0.105344873046875,8.37491740722656,5.36301171875
1.28679007389359,-0.119710083007812,8.39885942382812,5.42047255859375
1.29289209982675,-0.105344873046875,8.42280144042969,5.42047255859375
1.29899412575991,-0.162805712890625,8.39885942382812,5.46835659179687
1.30509615169307,-0.17238251953125,8.39885942382812,5.42526096191406
1.31120523372432,-0.158017309570312,8.41801303710938,5.439626171875
1.31731431575558,-0.162805712890625,8.41322463378906,5.42526096191406
1.32342339778683,-0.162805712890625,8.40843623046875,5.42526096191406
1.32953673090316,-0.15322890625,8.39885942382812,5.37258852539062
1.33565006401948,-0.143652099609375,8.4658970703125,5.42526096191406
1.3417633971358,-0.177170922851562,8.40843623046875,5.36780012207031
1.34788027224431,-0.138863696289063,8.43716665039062,5.37737692871094
1.35399714735282,-0.129286889648437,8.41801303710938,5.37258852539062
1.36011402246132,-0.138863696289063,8.43237824707031,5.37737692871094
1.36628846017834,-0.0814028564453125,8.45632026367188,5.39174213867187
1.37246289789536,-0.129286889648437,8.43716665039062,5.36780012207031
1.37863733561237,-0.15322890625,8.42758984375,5.39174213867187
1.38481640418877,-0.1149216796875,8.45153186035156,5.36780012207031
1.39099547276516,-0.143652099609375,8.47547387695312,5.38695373535156
1.39717454134155,-0.124498486328125,8.47547387695312,5.42526096191406
1.40335596289103,-0.129286889648437,8.4658970703125,5.39653054199219
1.40953738444051,-0.148440502929687,8.52814631347656,5.34385810546875
1.41571880598999,-0.100556469726563,8.52814631347656,5.36780012207031
1.42190328483114,-0.100556469726563,8.53772312011719,5.34864650878906
1.42808776367229,-0.124498486328125,8.56166513671875,5.36301171875
1.43427224251344,-0.13407529296875,8.56645354003906,5.41568415527344
1.44046032758288,-0.100556469726563,8.59997236328125,5.40610734863281
1.44664841265233,-0.13407529296875,8.63349118652344,5.36780012207031
1.45283649772177,-0.162805712890625,8.65264479980469,5.439626171875
1.45909031141534,-0.167594116210937,8.68616362304688,5.37258852539062
1.46534412510892,-0.181959326171875,8.66701000976562,5.36301171875
1.4715979388025,-0.196324536132812,8.66222160644531,5.38695373535156
1.47785542827733,-0.13407529296875,8.67179841308594,5.37737692871094
1.48411291775215,-0.167594116210937,8.71010563964844,5.44920297851562
1.49037040722698,-0.158017309570312,8.70052883300781,5.4013189453125
1.49663347732247,-0.177170922851562,8.65264479980469,5.43004936523437
1.50289654741795,-0.17238251953125,8.657433203125,5.46356818847656
1.50915961751344,-0.177170922851562,8.64785639648438,5.44441457519531
1.51542628906292,-0.167594116210937,8.66222160644531,5.39174213867187
1.52169296061241,-0.162805712890625,8.657433203125,5.44441457519531
1.52795963216189,-0.186747729492187,8.657433203125,5.44920297851562
1.5342282103954,-0.15322890625,8.63349118652344,5.35343491210937
1.5404967886289,-0.138863696289063,8.63827958984375,5.45877978515625
1.54676536686241,-0.196324536132812,8.61433757324219,5.45399138183594
1.55309418847699,-0.177170922851562,8.64785639648438,5.4013189453125
1.55942301009158,-0.167594116210937,8.62391437988281,5.41089575195312
1.56575183170616,-0.177170922851562,8.60476076660156,5.42047255859375
1.57208372059505,-0.181959326171875,8.60954916992188,5.45399138183594
1.57841560948394,-0.17238251953125,8.59039555664062,5.43483776855469
1.58474749837283,-0.1915361328125,8.60476076660156,5.46356818847656
1.59108327886328,-0.143652099609375,8.57603034667969,5.4779333984375
1.59741905935374,-0.177170922851562,8.57603034667969,5.48751020507812
1.60375483984419,-0.129286889648437,8.56166513671875,5.42047255859375
1.61009336447527,-0.138863696289063,8.58560715332031,5.49229860839844
1.61643188910634,-0.158017309570312,8.57124194335938,5.44920297851562
1.62277041373742,-0.215478149414062,8.54729992675781,5.42526096191406
1.62911170833377,-0.181959326171875,8.59997236328125,5.44441457519531
1.63545300293013,-0.21068974609375,8.55687673339844,5.39653054199219
1.64179429752648,-0.201112939453125,8.56166513671875,5.45877978515625
1.64820213509159,-0.205901342773437,8.54729992675781,5.44441457519531
1.65460997265669,-0.205901342773437,8.52814631347656,5.43483776855469
1.6610178102218,-0.244208569335937,8.53293471679688,5.4013189453125
1.667431805556,-0.205901342773437,8.4658970703125,5.39174213867187
1.67384580089021,-0.225054956054687,8.47068547363281,5.42526096191406
1.68025979622441,-0.196324536132812,8.49941589355469,5.439626171875
1.68667763248743,-0.225054956054687,8.49941589355469,5.45399138183594
1.69309546875045,-0.2681505859375,8.49941589355469,5.36780012207031
1.69951330501348,-0.24899697265625,8.52335791015625,5.439626171875
1.7059346194666,-0.244208569335937,8.58560715332031,5.35822331542969
1.71235593391973,-0.229843359375,8.57603034667969,5.40610734863281
1.71877724837285,-0.258573779296875,8.58081875,5.37737692871094
1.72521402983987,-0.277727392578125,8.55687673339844,5.39653054199219
1.73165081130688,-0.263362182617187,8.55687673339844,5.39653054199219
1.7380875927739,-0.215478149414062,8.51856950683594,5.38695373535156
1.74457337174526,-0.253785375976562,8.5425115234375,5.45877978515625
1.75105915071662,-0.215478149414062,8.49462749023438,5.44441457519531
1.75754492968797,-0.215478149414062,8.48983908691406,5.43483776855469
1.76403354492235,-0.167594116210937,8.45153186035156,5.42526096191406
1.77052216015672,-0.186747729492187,8.45153186035156,5.43004936523437
1.7770107753911,-0.162805712890625,8.44195505371094,5.41089575195312
1.78350260297356,-0.13407529296875,8.44674345703125,5.44920297851562
1.78999443055603,-0.148440502929687,8.44674345703125,5.38695373535156
1.79648625813849,-0.119710083007812,8.45632026367188,5.4013189453125
1.80298004003954,-0.100556469726563,8.45632026367188,5.439626171875
1.80947382194058,-0.0814028564453125,8.48026228027344,5.41089575195312
1.81596760384162,-0.0622492431640625,8.49462749023438,5.39653054199219
1.82246319585551,-0.100556469726563,8.42758984375,5.39653054199219
1.8289587878694,-0.0526724365234375,8.44674345703125,5.41568415527344
1.83545437988329,-0.0622492431640625,8.47547387695312,5.37737692871094
1.84201865635899,-0.0526724365234375,8.42280144042969,5.38695373535156
1.84858293283469,-0.0335188232421875,8.47068547363281,5.41089575195312
1.85514720931038,-0.05746083984375,8.47547387695312,5.43004936523437
1.86171691156733,-0.0430956298828125,8.49941589355469,5.439626171875
1.86828661382427,-0.076614453125,8.51378110351562,5.47314499511719
1.87485631608121,-0.076614453125,8.58081875,5.4013189453125
1.88142811469233,-0.047884033203125,8.55687673339844,5.49708701171875
1.88799991330344,-0.047884033203125,8.59039555664062,5.42526096191406
1.89457171191456,-0.0383072265625,8.58560715332031,5.41568415527344
1.9011453577479,-0.0622492431640625,8.55208833007812,5.42047255859375
1.90771900358123,-0.076614453125,8.55687673339844,5.36780012207031
1.91429264941457,-0.0526724365234375,8.51378110351562,5.47314499511719
1.92086809027829,-0.0909796630859375,8.47547387695312,5.42526096191406
1.92744353114201,-0.100556469726563,8.45632026367188,5.4013189453125
1.93401897200572,-0.119710083007812,8.45153186035156,5.41568415527344
1.94066309689722,-0.076614453125,8.45632026367188,5.41568415527344
1.94730722178871,-0.105344873046875,8.42280144042969,5.45399138183594
1.95395134668021,-0.067037646484375,8.37491740722656,5.46356818847656
1.96059944411945,-0.086191259765625,8.40364782714844,5.39174213867187
1.96724754155868,-0.1149216796875,8.43237824707031,5.49708701171875
1.97389563899792,-0.15322890625,8.45153186035156,5.41089575195312
1.98055034212293,-0.143652099609375,8.45153186035156,5.42526096191406
1.98720504524793,-0.158017309570312,8.49941589355469,5.34385810546875
1.99385974837293,-0.162805712890625,8.50899270019531,5.41089575195312
2.00051768229221,-0.186747729492187,8.55208833007812,5.4013189453125
2.00717561621148,-0.181959326171875,8.54729992675781,5.43004936523437
2.01383355013075,-0.162805712890625,8.55208833007812,5.44441457519531
2.0204933587245,-0.13407529296875,8.51378110351562,5.42047255859375
2.02715316731825,-0.143652099609375,8.51856950683594,5.42047255859375
2.03381297591201,-0.167594116210937,8.52335791015625,5.49708701171875
2.04053369672364,-0.129286889648437,8.48505068359375,5.45399138183594
2.04725441753527,-0.100556469726563,8.47547387695312,5.56891306152344
2.05397513834691,-0.1149216796875,8.44195505371094,5.43004936523437
2.06070197450142,-0.167594116210937,8.45153186035156,5.53060583496094
2.06742881065593,-0.15322890625,8.41801303710938,5.49229860839844
2.07415564681045,-0.167594116210937,8.40843623046875,5.49229860839844
2.08090081911948,-0.138863696289063,8.43237824707031,5.43483776855469
2.0876459914285,-0.138863696289063,8.40364782714844,5.42047255859375
2.09439116373753,-0.124498486328125,8.3892826171875,5.45399138183594
2.10114006130698,-0.129286889648437,8.38449421386719,5.48751020507812
2.10788895887643,-0.138863696289063,8.44674345703125,5.37737692871094
2.11463785644587,-0.15322890625,8.42280144042969,5.42047255859375
2.12139070898494,-0.13407529296875,8.41801303710938,5.439626171875
2.12814356152401,-0.158017309570312,8.39407102050781,5.46356818847656
2.13489641406307,-0.17238251953125,8.3892826171875,5.42526096191406
2.14169435308217,-0.167594116210937,8.41322463378906,5.45877978515625
2.14849229210127,-0.15322890625,8.3892826171875,5.37258852539062
2.15529023112037,-0.177170922851562,8.40843623046875,5.47314499511719
2.16209080794328,-0.1915361328125,8.41322463378906,5.43004936523437
2.1688913847662,-0.239420166015625,8.43716665039062,5.43004936523437
2.17569196158912,-0.201112939453125,8.40364782714844,5.35343491210937
2.18249500249624,-0.196324536132812,8.40364782714844,5.41568415527344
2.18929804340336,-0.21068974609375,8.3892826171875,5.39174213867187
2.19610108431048,-0.17238251953125,8.37970581054688,5.35343491210937
2.20290641601621,-0.272938989257812,8.38449421386719,5.34864650878906
2.20971174772194,-0.196324536132812,8.38449421386719,5.37258852539062
2.21651707942767,-0.272938989257812,8.44195505371094,5.31991608886719
2.22332441645024,-0.239420166015625,8.44195505371094,5.29597407226562
2.23013175347281,-0.229843359375,8.504204296875,5.29597407226562
2.23693909049538,-0.292092602539062,8.48026228027344,5.38216533203125
2.24139363715337,-0.2681505859375,8.48026228027344,5.27203205566406
2.24584818381135,-0.339976635742188,8.49941589355469,5.25287844238281
2.25030273046934,-0.296881005859375,8.50899270019531,5.22893642578125
2.25241093717508,-0.373495458984375,8.52814631347656,5.27203205566406
2.25451914388081,-0.36391865234375,8.51378110351562,5.21935961914062
2.25662735058654,-0.368707055664062,8.58560715332031,5.25766684570312
2.25888340136779,-0.426167895507812,8.55687673339844,5.19062919921875
2.26113945214903,-0.426167895507812,8.6191259765625,5.15232197265625
2.26339550293028,-0.44053310546875,8.60954916992188,5.14274516601562
2.26558824316465,-0.464475122070312,8.71489404296875,5.16668718261719
2.26778098339903,-0.450109912109375,8.69095202636719,5.09964953613281
2.2699737236334,-0.469263525390625,8.74362446289062,5.11401474609375
2.27216649978357,-0.488417138671875,8.71010563964844,5.09964953613281
2.27435927593374,-0.464475122070312,8.77714328613281,5.0948611328125
2.27655205208391,-0.507570751953125,8.79629689941406,5.06134230957031
2.27874642979659,-0.507570751953125,8.78672009277344,5.00866987304688
2.28094080750926,-0.512359155273437,8.79150849609375,5.05655390625
2.28313518522194,-0.502782348632812,8.81545051269531,5.03261188964844
2.28532969368548,-0.531512768554687,8.78672009277344,5.09007272949219
2.28752420214902,-0.51714755859375,8.80587370605469,4.99909306640625
2.28971871061256,-0.493205541992187,8.76756647949219,5.07091911621094
2.29509650805722,-0.354341845703125,8.64306799316406,5.0948611328125
2.30047430550188,-0.339976635742188,8.64785639648438,5.11401474609375
2.30585210294655,-0.296881005859375,8.6957404296875,5.16189877929687
2.31754786957524,0.162805712890625,8.38449421386719,5.50187541503906
2.32924363620393,0.143652099609375,8.35576379394531,5.49708701171875
2.34093940283262,0.17238251953125,8.34618698730469,5.56412465820312
2.34304406407394,0.181959326171875,8.37970581054688,5.54497104492187
2.34514872531526,0.13407529296875,8.28393774414062,5.56891306152344
2.34725338655659,0.148440502929687,8.24563051757812,5.59764348144531
2.34935654052794,0.148440502929687,8.20732329101562,5.57848986816406
2.35145969449929,0.167594116210937,8.20253488769531,5.56891306152344
2.35356284847065,0.143652099609375,8.197746484375,5.63595070800781
2.35566334293679,0.186747729492187,8.18816967773437,5.68383474121094
2.35776383740293,0.148440502929687,8.12113203125,5.68383474121094
2.35986433186908,0.119710083007812,8.14986245117187,5.63595070800781
2.36190507221196,0.1149216796875,8.14028564453125,5.57370146484375
2.36394581255484,0.124498486328125,8.09719001464844,5.60722028808594
2.36598655289772,0.0909796630859375,8.12113203125,5.65510432128906
2.36809399148279,0.0909796630859375,8.09719001464844,5.60243188476562
2.37020143006787,0.067037646484375,8.11634362792969,5.6311623046875
2.37230886865294,0.047884033203125,8.13549724121094,5.61679709472656
2.37441636094894,0.067037646484375,8.16422766113281,5.61200869140625
2.37652385324495,0.0622492431640625,8.14028564453125,5.62637390136719
2.37863134554095,0.076614453125,8.17380446777344,5.60243188476562
2.38074032893939,0.047884033203125,8.16422766113281,5.61679709472656
2.38284931233783,0.0143652099609375,8.197746484375,5.62637390136719
2.38495829573627,0.009576806640625,8.1594392578125,5.65510432128906
2.38706889198193,0.009576806640625,8.19295808105469,5.6311623046875
2.38917948822758,-0.0047884033203125,8.20732329101562,5.72214196777344
2.39129008447324,-0.0143652099609375,8.21211169433594,5.7077767578125
2.39334117518505,-0.047884033203125,8.24084211425781,5.65989272460937
2.39539226589685,-0.009576806640625,8.26478413085937,5.62158549804687
2.39744335660866,0.009576806640625,8.26478413085937,5.65989272460937
2.39955911897845,-0.0526724365234375,8.25041892089844,5.69819995117187
2.40167488134824,-0.028730419921875,8.27914934082031,5.69819995117187
2.40379064371803,-0.086191259765625,8.25999572753906,5.66946953125
2.40590950179094,-0.067037646484375,8.28393774414062,5.69341154785156
2.40802835986385,-0.0430956298828125,8.27914934082031,5.746083984375
2.41014721793677,-0.0814028564453125,8.29830295410156,5.79396801757812
2.41226766314076,-0.129286889648437,8.28872614746094,5.73171877441406
2.41438810834476,-0.129286889648437,8.28393774414062,5.69819995117187
2.41650855354875,-0.0718260498046875,8.30309135742187,5.70298835449219
2.41863093907393,-0.0909796630859375,8.28393774414062,5.76044919433594
2.4207533245991,-0.09576806640625,8.29830295410156,5.79875642089844
2.42287571012427,-0.05746083984375,8.29830295410156,5.746083984375
2.42493006277184,-0.0335188232421875,8.27914934082031,5.72693037109375
2.42698441541941,-0.0909796630859375,8.33661018066406,5.72214196777344
2.42903876806697,-0.0622492431640625,8.28393774414062,5.76044919433594
2.43114128271541,-0.0622492431640625,8.29830295410156,5.78917961425781
2.43324379736385,-0.047884033203125,8.2743609375,5.75087238769531
2.43534631201229,-0.009576806640625,8.2743609375,5.69819995117187
2.43745018473364,-0.0526724365234375,8.23126530761719,5.78917961425781
2.43955405745499,-0.028730419921875,8.19295808105469,5.77002600097656
2.44165793017635,-0.0526724365234375,8.2360537109375,5.72693037109375
2.44376505398277,-0.0430956298828125,8.22647690429687,5.75566079101562
2.4458721777892,-0.0335188232421875,8.23126530761719,5.746083984375
2.44797930159562,-0.0383072265625,8.22647690429687,5.71256516113281
2.45008856754614,-0.067037646484375,8.21690009765625,5.73171877441406
2.45219783349666,-0.047884033203125,8.15465085449219,5.73171877441406
2.45430709944718,-0.009576806640625,8.22647690429687,5.68383474121094
2.45635466650447,-0.047884033203125,8.20732329101562,5.74129558105469
2.45840223356177,-0.0909796630859375,8.20732329101562,5.73171877441406
2.46044980061906,-0.0814028564453125,8.20732329101562,5.67425793457031
2.46255613525448,-0.076614453125,8.21690009765625,5.68383474121094
2.4646624698899,-0.1149216796875,8.18338127441406,5.77481440429687
2.46676880452532,-0.0814028564453125,8.197746484375,5.72693037109375
2.46887572043243,-0.105344873046875,8.18338127441406,5.7077767578125
2.47098263633955,-0.119710083007812,8.16422766113281,5.62158549804687
2.47308955224666,-0.129286889648437,8.13549724121094,5.71256516113281
2.47519758273711,-0.105344873046875,8.14986245117187,5.70298835449219
2.47730561322757,-0.17238251953125,8.17380446777344,5.7077767578125
2.47941364371802,-0.181959326171875,8.12113203125,5.66468112792969
2.48152232166941,-0.196324536132812,8.18816967773437,5.72214196777344
2.4836309996208,-0.148440502929687,8.13070883789062,5.65989272460937
2.48573967757218,-0.162805712890625,8.05888278808594,5.62637390136719
2.48778356320586,-0.201112939453125,8.09240161132812,5.61200869140625
2.48982744883954,-0.229843359375,8.11634362792969,5.62158549804687
2.49187133447322,-0.177170922851562,8.14507404785156,5.64073911132812
2.49397749907825,-0.196324536132812,8.0828248046875,5.67425793457031
2.49608366368328,-0.244208569335937,8.11155522460937,5.60243188476562
2.49818982828832,-0.196324536132812,8.12592043457031,5.57848986816406
2.5002995951069,-0.225054956054687,8.15465085449219,5.58806667480469
2.50240936192547,-0.272938989257812,8.14028564453125,5.592855078125
2.50451912874405,-0.253785375976562,8.19295808105469,5.58327827148437
2.50662929269804,-0.258573779296875,8.19295808105469,5.59764348144531
2.50873945665203,-0.2681505859375,8.17859287109375,5.5545478515625
2.51084962060602,-0.292092602539062,8.18338127441406,5.50666381835937
2.51295832904786,-0.301669409179687,8.19295808105469,5.50666381835937
2.5150670374897,-0.28730419921875,8.14986245117187,5.59764348144531
2.51717574593154,-0.277727392578125,8.18338127441406,5.60722028808594
2.5192401094298,-0.263362182617187,8.16422766113281,5.57848986816406
2.52130447292807,-0.292092602539062,8.21211169433594,5.55933625488281
2.52336883642633,-0.28730419921875,8.18338127441406,5.5545478515625
2.52547789089681,-0.277727392578125,8.17859287109375,5.57370146484375
2.5275869453673,-0.296881005859375,8.23126530761719,5.53539423828125
2.52969599983778,-0.335188232421875,8.2360537109375,5.58806667480469
2.53180635736817,-0.301669409179687,8.26478413085937,5.53060583496094
2.53391671489855,-0.277727392578125,8.25999572753906,5.50666381835937
2.53602707242894,-0.277727392578125,8.29351455078125,5.516240625
2.53813893853137,-0.301669409179687,8.25999572753906,5.55933625488281
2.5402508046338,-0.277727392578125,8.27914934082031,5.58806667480469
2.54236267073624,-0.263362182617187,8.24563051757812,5.55933625488281
2.54447452370933,-0.225054956054687,8.28872614746094,5.56891306152344
2.54658637668242,-0.301669409179687,8.30309135742187,5.54018264160156
2.54869822965551,-0.24899697265625,8.34139858398438,5.51145222167969
2.5507404685878,-0.292092602539062,8.36055219726562,5.54497104492187
2.55278270752009,-0.282515795898438,8.36055219726562,5.48272180175781
2.55482494645238,-0.301669409179687,8.40364782714844,5.44920297851562
2.55693529389162,-0.282515795898438,8.44195505371094,5.50187541503906
2.55904564133086,-0.330399829101562,8.4658970703125,5.50666381835937
2.5611559887701,-0.3064578125,8.48983908691406,5.50187541503906
2.56327040359215,-0.359130249023437,8.53772312011719,5.49229860839844
2.5653848184142,-0.359130249023437,8.55687673339844,5.46835659179687
2.56749923323625,-0.407014282226562,8.53772312011719,5.49229860839844
2.56961424376143,-0.378283862304687,8.58081875,5.51145222167969
2.5717292542866,-0.4213794921875,8.61433757324219,5.53539423828125
2.57384426481178,-0.387860668945312,8.59518395996094,5.53060583496094
2.57595927501144,-0.397437475585937,8.59518395996094,5.53060583496094
2.57807428521109,-0.378283862304687,8.59997236328125,5.45399138183594
2.58018929541075,-0.373495458984375,8.59518395996094,5.4779333984375
2.58223395025016,-0.36391865234375,8.60476076660156,5.57370146484375
2.58427860508957,-0.354341845703125,8.61433757324219,5.54975944824219
2.58632325992897,-0.383072265625,8.62870278320312,5.52581743164062
2.58842916834911,-0.36391865234375,8.59039555664062,5.56412465820312
2.59053507676925,-0.354341845703125,8.57124194335938,5.58327827148437
2.59264098518939,-0.292092602539062,8.57124194335938,5.54975944824219
2.59475791791509,-0.36391865234375,8.56166513671875,5.54975944824219
2.59687485064079,-0.354341845703125,8.56166513671875,5.55933625488281
2.59899178336649,-0.349553442382812,8.52814631347656,5.53539423828125
2.60110988406093,-0.292092602539062,8.53772312011719,5.52581743164062
2.60322798475537,-0.330399829101562,8.504204296875,5.54497104492187
2.60534608544981,-0.320823022460937,8.53772312011719,5.592855078125
2.60746418788037,-0.320823022460937,8.504204296875,5.56891306152344
2.60958229031093,-0.335188232421875,8.49941589355469,5.592855078125
2.61170039274148,-0.301669409179687,8.48505068359375,5.61200869140625
2.61375060064079,-0.292092602539062,8.4658970703125,5.60243188476562
2.6158008085401,-0.28730419921875,8.39407102050781,5.59764348144531
2.6178510164394,-0.292092602539062,8.46110866699219,5.58806667480469
2.61995450341857,-0.28730419921875,8.47068547363281,5.57848986816406
2.62205799039774,-0.28730419921875,8.42280144042969,5.59764348144531
2.6241614773769,-0.277727392578125,8.47068547363281,5.57848986816406
2.62626586301058,-0.292092602539062,8.42280144042969,5.53060583496094
2.62837024864426,-0.253785375976562,8.45632026367188,5.592855078125
2.63047463427795,-0.277727392578125,8.3892826171875,5.57848986816406
2.63257978000277,-0.234631762695312,8.37491740722656,5.58806667480469
2.6346849257276,-0.201112939453125,8.34618698730469,5.51145222167969
2.63679007145242,-0.1915361328125,8.34139858398438,5.62158549804687
2.63889515500277,-0.229843359375,8.36055219726562,5.56412465820312
2.64100023855312,-0.215478149414062,8.33661018066406,5.56891306152344
2.64310532210347,-0.229843359375,8.36055219726562,5.60722028808594
2.64514546565816,-0.205901342773437,8.36055219726562,5.60243188476562
2.64718560921285,-0.1915361328125,8.36055219726562,5.61679709472656
2.64922575276753,-0.1915361328125,8.36055219726562,5.61200869140625
2.65132871186042,-0.158017309570312,8.38449421386719,5.59764348144531
2.65343167095331,-0.1915361328125,8.37012900390625,5.61200869140625
2.65553463004619,-0.196324536132812,8.40364782714844,5.64073911132812
2.65763306635262,-0.181959326171875,8.41322463378906,5.55933625488281
2.65973150265904,-0.186747729492187,8.37012900390625,5.62158549804687
2.66182993896547,-0.13407529296875,8.39885942382812,5.64552751464844
2.66392818972502,-0.138863696289063,8.40364782714844,5.67425793457031
2.66602644048457,-0.15322890625,8.38449421386719,5.62637390136719
2.66812469124412,-0.143652099609375,8.42280144042969,5.61200869140625
2.67022333588388,-0.129286889648437,8.40364782714844,5.63595070800781
2.67232198052363,-0.15322890625,8.37970581054688,5.60243188476562
2.67442062516339,-0.13407529296875,8.37491740722656,5.592855078125
2.67646069037607,-0.138863696289063,8.39885942382812,5.57848986816406
2.67850075558874,-0.162805712890625,8.37970581054688,5.57370146484375
2.68054082080141,-0.167594116210937,8.350975390625,5.65031591796875
2.68264644515037,-0.15322890625,8.36534060058594,5.60243188476562
2.68475206949932,-0.100556469726563,8.36055219726562,5.56891306152344
2.68685769384828,-0.1149216796875,8.35576379394531,5.60722028808594
2.68896363753318,-0.110133276367187,8.36055219726562,5.56891306152344
2.69106958121807,-0.0909796630859375,8.34139858398438,5.60722028808594
2.69317552490297,-0.119710083007812,8.34618698730469,5.592855078125
2.69528194471634,-0.1149216796875,8.37491740722656,5.61200869140625
2.69738836452971,-0.119710083007812,8.37970581054688,5.54018264160156
2.69949478434307,-0.0909796630859375,8.34618698730469,5.56412465820312
2.70159971424759,-0.100556469726563,8.36534060058594,5.62637390136719
2.7037046441521,-0.110133276367187,8.39407102050781,5.60722028808594
2.70580957405662,-0.0909796630859375,8.42280144042969,5.58806667480469
2.70785002240731,-0.086191259765625,8.40843623046875,5.6311623046875
2.70989047075801,-0.105344873046875,8.44674345703125,5.62158549804687
2.71193091910871,-0.105344873046875,8.42758984375,5.60243188476562
2.71404798801062,-0.086191259765625,8.41801303710938,5.592855078125
2.71616505691253,-0.124498486328125,8.38449421386719,5.57848986816406
2.71828212581444,-0.1149216796875,8.38449421386719,5.57370146484375
2.72040298963823,-0.0718260498046875,8.40364782714844,5.62637390136719
2.72252385346201,-0.119710083007812,8.39885942382812,5.62637390136719
2.7246447172858,-0.124498486328125,8.3892826171875,5.52102902832031
2.72676762689952,-0.124498486328125,8.42280144042969,5.53539423828125
2.72889053651323,-0.1149216796875,8.41322463378906,5.53539423828125
2.73101344612695,-0.0909796630859375,8.43716665039062,5.592855078125
2.7331381719299,-0.0909796630859375,8.42758984375,5.62158549804687
2.73526289773286,-0.119710083007812,8.40843623046875,5.55933625488281
2.73738762353581,-0.086191259765625,8.42280144042969,5.50666381835937
2.73944688536307,-0.1149216796875,8.43716665039062,5.52102902832031
2.74150614719032,-0.1149216796875,8.36534060058594,5.57848986816406
2.74356540901758,-0.119710083007812,8.43716665039062,5.57370146484375
2.74568431798025,-0.105344873046875,8.41322463378906,5.54497104492187
2.74780322694293,-0.105344873046875,8.44674345703125,5.51145222167969
2.74992213590561,-0.124498486328125,8.46110866699219,5.54975944824219
2.75204070708616,-0.100556469726563,8.42758984375,5.57370146484375
2.75415927826672,-0.148440502929687,8.44195505371094,5.54018264160156
2.75627784944727,-0.15322890625,8.42280144042969,5.63595070800781
2.75839581765473,-0.196324536132812,8.44195505371094,5.56891306152344
2.7605137858622,-0.162805712890625,8.4658970703125,5.59764348144531
2.76263175406966,-0.162805712890625,8.39407102050781,5.61200869140625
2.76474968842296,-0.148440502929687,8.41801303710938,5.55933625488281
2.76686762277626,-0.148440502929687,8.40843623046875,5.52581743164062
2.76898555712955,-0.129286889648437,8.39885942382812,5.62158549804687
2.77105020990733,-0.129286889648437,8.40364782714844,5.592855078125
2.77311486268511,-0.143652099609375,8.39885942382812,5.52581743164062
2.77517951546288,-0.158017309570312,8.38449421386719,5.49708701171875
2.77728251199066,-0.158017309570312,8.37491740722656,5.60243188476562
2.77938550851844,-0.158017309570312,8.41801303710938,5.56891306152344
2.78148850504621,-0.129286889648437,8.42280144042969,5.53060583496094
2.78359180094465,-0.162805712890625,8.42758984375,5.58327827148437
2.78569509684309,-0.162805712890625,8.42280144042969,5.54018264160156
2.78779839274152,-0.162805712890625,8.44195505371094,5.56891306152344
2.78990052284135,-0.162805712890625,8.44195505371094,5.51145222167969
2.79200265294117,-0.138863696289063,8.47068547363281,5.5545478515625
2.79410478304099,-0.158017309570312,8.45153186035156,5.516240625
2.79620525982051,-0.17238251953125,8.47068547363281,5.54018264160156
2.79830573660003,-0.158017309570312,8.4658970703125,5.5545478515625
2.80040621337955,-0.215478149414062,8.48505068359375,5.4779333984375
2.80244279258962,-0.225054956054687,8.47068547363281,5.57370146484375
2.80447937179969,-0.220266552734375,8.47547387695312,5.54497104492187
2.80651595100976,-0.196324536132812,8.51378110351562,5.54018264160156
2.80861905604448,-0.205901342773437,8.45632026367188,5.51145222167969
2.8107221610792,-0.244208569335937,8.48026228027344,5.48751020507812
2.81282526611392,-0.263362182617187,8.48505068359375,5.52102902832031
2.81492568061045,-0.258573779296875,8.4658970703125,5.58327827148437
2.81702609510698,-0.253785375976562,8.48983908691406,5.57370146484375
2.81912650960351,-0.234631762695312,8.47547387695312,5.516240625
2.82122571327104,-0.253785375976562,8.48026228027344,5.56412465820312
2.82332491693857,-0.205901342773437,8.45632026367188,5.54975944824219
2.8254241206061,-0.24899697265625,8.49462749023438,5.52581743164062
2.82752367171287,-0.244208569335937,8.43237824707031,5.53539423828125
2.82962322281964,-0.239420166015625,8.47547387695312,5.60722028808594
2.83172277392642,-0.244208569335937,8.47547387695312,5.516240625
2.83376404671288,-0.234631762695312,8.51856950683594,5.57370146484375
2.83580531949934,-0.229843359375,8.50899270019531,5.57848986816406
2.8378465922858,-0.225054956054687,8.47547387695312,5.58806667480469
2.83988659575802,-0.220266552734375,8.48505068359375,5.52102902832031
2.84192659923024,-0.258573779296875,8.5425115234375,5.54018264160156
2.84396660270247,-0.258573779296875,8.49941589355469,5.53060583496094
2.84606892551062,-0.258573779296875,8.47068547363281,5.52581743164062
2.84817124831878,-0.272938989257812,8.50899270019531,5.57370146484375
2.85027357112693,-0.234631762695312,8.48505068359375,5.61679709472656
2.85237625786739,-0.21068974609375,8.44195505371094,5.59764348144531
2.85447894460784,-0.196324536132812,8.45632026367188,5.52581743164062
2.85658163134829,-0.205901342773437,8.47068547363281,5.56891306152344
2.85868413861826,-0.215478149414062,8.45632026367188,5.51145222167969
2.86078664588823,-0.186747729492187,8.4658970703125,5.54975944824219
2.86288915315819,-0.186747729492187,8.51856950683594,5.57848986816406
2.86492742974239,-0.177170922851562,8.44195505371094,5.5545478515625
2.8669657063266,-0.205901342773437,8.50899270019531,5.53539423828125
2.8690039829108,-0.186747729492187,8.51856950683594,5.54018264160156
2.87110784337086,-0.167594116210937,8.49462749023438,5.6311623046875
2.87321170383093,-0.167594116210937,8.53293471679688,5.57848986816406
2.875315564291,-0.15322890625,8.50899270019531,5.5545478515625
2.87742132416513,-0.129286889648437,8.47547387695312,5.49708701171875
2.87952708403926,-0.143652099609375,8.4658970703125,5.54975944824219
2.88163284391339,-0.138863696289063,8.48983908691406,5.61200869140625
2.88373748399586,-0.148440502929687,8.46110866699219,5.60722028808594
2.88584212407832,-0.143652099609375,8.43237824707031,5.58327827148437
2.88794676416079,-0.143652099609375,8.43237824707031,5.54018264160156
2.89003781450801,-0.09576806640625,8.41322463378906,5.5545478515625
2.89212886485523,-0.1149216796875,8.43237824707031,5.56891306152344
2.89421991520246,-0.15322890625,8.40364782714844,5.54975944824219
2.89626380832311,-0.177170922851562,8.42758984375,5.592855078125
2.89830770144377,-0.158017309570312,8.45632026367188,5.60722028808594
2.90035159456443,-0.158017309570312,8.39885942382812,5.592855078125
2.90239442529359,-0.177170922851562,8.41801303710938,5.62158549804687
2.90443725602276,-0.148440502929687,8.42758984375,5.60243188476562
2.90648008675193,-0.13407529296875,8.48026228027344,5.54497104492187
2.90858573931269,-0.177170922851562,8.46110866699219,5.54975944824219
2.91069139187346,-0.148440502929687,8.4658970703125,5.56412465820312
2.91279704443423,-0.100556469726563,8.44195505371094,5.61200869140625
2.91490702099673,-0.143652099609375,8.48505068359375,5.65989272460937
2.91701699755923,-0.15322890625,8.46110866699219,5.56891306152344
2.91912697412172,-0.143652099609375,8.46110866699219,5.60722028808594
2.92123987104012,-0.143652099609375,8.44195505371094,5.62637390136719
2.92335276795852,-0.124498486328125,8.47068547363281,5.56891306152344
2.92546566487692,-0.158017309570312,8.42758984375,5.55933625488281
2.92751312310175,-0.17238251953125,8.41801303710938,5.56891306152344
2.92956058132658,-0.148440502929687,8.47547387695312,5.592855078125
2.93160803955141,-0.143652099609375,8.44195505371094,5.58327827148437
2.93365193571026,-0.124498486328125,8.41801303710938,5.60243188476562
2.93569583186912,-0.143652099609375,8.40843623046875,5.60722028808594
2.93773972802798,-0.177170922851562,8.40843623046875,5.58327827148437
2.93984128184742,-0.129286889648437,8.38449421386719,5.62158549804687
2.94194283566686,-0.1149216796875,8.3892826171875,5.592855078125
2.94404438948631,-0.119710083007812,8.36534060058594,5.68383474121094
2.94614756765471,-0.158017309570312,8.38449421386719,5.65989272460937
2.94825074582311,-0.143652099609375,8.37012900390625,5.61200869140625
2.95035392399151,-0.143652099609375,8.36055219726562,5.57848986816406
2.95245816107919,-0.119710083007812,8.3892826171875,5.61200869140625
2.95456239816686,-0.124498486328125,8.36534060058594,5.62158549804687
2.95666663525454,-0.105344873046875,8.30309135742187,5.57370146484375
2.95870609727711,-0.09576806640625,8.33661018066406,5.62637390136719
2.96074555929968,-0.0909796630859375,8.33661018066406,5.592855078125
2.96278502132225,-0.119710083007812,8.34618698730469,5.60722028808594
2.96482295903926,-0.0718260498046875,8.3126681640625,5.64552751464844
2.96686089675627,-0.0718260498046875,8.29351455078125,5.592855078125
2.96889883447328,-0.100556469726563,8.30787976074219,5.61200869140625
2.97099547672588,-0.100556469726563,8.34618698730469,5.61679709472656
2.97309211897848,-0.105344873046875,8.29830295410156,5.62158549804687
2.97518876123108,-0.148440502929687,8.30787976074219,5.61679709472656
2.9772848395731,-0.124498486328125,8.30309135742187,5.65989272460937
2.97938091791511,-0.143652099609375,8.28393774414062,5.68862314453125
2.98147699625713,-0.119710083007812,8.30309135742187,5.66946953125
2.98357374202536,-0.148440502929687,8.27914934082031,5.57370146484375
2.98567048779358,-0.086191259765625,8.28393774414062,5.6311623046875
2.98776723356181,-0.158017309570312,8.28872614746094,5.66468112792969
2.989804978679,-0.158017309570312,8.26478413085937,5.61200869140625
2.99184272379619,-0.162805712890625,8.2743609375,5.59764348144531
2.99388046891337,-0.205901342773437,8.2743609375,5.65031591796875
2.99591411876147,-0.205901342773437,8.30787976074219,5.63595070800781
2.99794776860956,-0.186747729492187,8.3126681640625,5.61200869140625
2.99998141845765,-0.234631762695312,8.30309135742187,5.592855078125
3.00206877609654,-0.272938989257812,8.30787976074219,5.57848986816406
3.00415613373543,-0.272938989257812,8.32703337402344,5.54975944824219
3.00624349137432,-0.258573779296875,8.36534060058594,5.57848986816406
3.00833218668682,-0.272938989257812,8.32703337402344,5.57848986816406
3.01042088199932,-0.263362182617187,8.350975390625,5.58327827148437
3.01250957731182,-0.244208569335937,8.32703337402344,5.52581743164062
3.0145961848422,-0.24899697265625,8.33661018066406,5.57370146484375
3.01668279237258,-0.24899697265625,8.33182177734375,5.55933625488281
3.01876939990296,-0.239420166015625,8.33182177734375,5.54975944824219
3.02081454942553,-0.220266552734375,8.34618698730469,5.592855078125
3.0228596989481,-0.229843359375,8.350975390625,5.54497104492187
3.02490484847067,-0.277727392578125,8.36534060058594,5.49708701171875
3.02695103293248,-0.234631762695312,8.350975390625,5.47314499511719
3.02899721739429,-0.220266552734375,8.36534060058594,5.53060583496094
3.0310434018561,-0.196324536132812,8.350975390625,5.55933625488281
3.03316110400453,-0.205901342773437,8.36055219726562,5.58327827148437
3.03527880615297,-0.196324536132812,8.38449421386719,5.60722028808594
3.03739650830141,-0.21068974609375,8.41322463378906,5.5545478515625
3.03951642377451,-0.186747729492187,8.36534060058594,5.47314499511719
3.0416363392476,-0.181959326171875,8.40364782714844,5.54497104492187
3.04375625472069,-0.167594116210937,8.41322463378906,5.52581743164062
3.04587773171722,-0.17238251953125,8.40364782714844,5.58806667480469
3.04799920871375,-0.162805712890625,8.43716665039062,5.5545478515625
3.05012068571028,-0.148440502929687,8.41801303710938,5.52581743164062
3.05217647260264,-0.1149216796875,8.48026228027344,5.58327827148437
3.054232259495,-0.124498486328125,8.43716665039062,5.54975944824219
3.05628804638737,-0.119710083007812,8.49941589355469,5.5545478515625
3.0582617767476,-0.129286889648437,8.44195505371094,5.60243188476562
3.06023550710784,-0.119710083007812,8.4658970703125,5.57848986816406
3.06220923746808,-0.167594116210937,8.42758984375,5.53539423828125
3.06409729725541,-0.124498486328125,8.43237824707031,5.56412465820312
3.06598535704274,-0.119710083007812,8.47547387695312,5.50666381835937
3.06787341683007,-0.129286889648437,8.45632026367188,5.53060583496094
3.06976467192989,-0.100556469726563,8.43237824707031,5.48751020507812
3.07165592702972,-0.0814028564453125,8.43716665039062,5.52581743164062
3.07354718212954,-0.067037646484375,8.45632026367188,5.57848986816406
3.07543984282833,-0.119710083007812,8.42758984375,5.56891306152344
3.07733250352712,-0.086191259765625,8.39407102050781,5.60243188476562
3.0792251642259,-0.09576806640625,8.43237824707031,5.57848986816406
3.08111745502452,-0.076614453125,8.39885942382812,5.57848986816406
3.08300974582313,-0.100556469726563,8.44195505371094,5.56891306152344
3.08490203662174,-0.05746083984375,8.41801303710938,5.592855078125
3.08679607709483,-0.0526724365234375,8.40364782714844,5.54975944824219
3.08869011756792,-0.0622492431640625,8.37970581054688,5.56891306152344
3.09058415804101,-0.0383072265625,8.33661018066406,5.54497104492187
3.09252381042545,-0.0143652099609375,8.36534060058594,5.60722028808594
3.09446346280989,-0.01915361328125,8.36055219726562,5.58806667480469
3.09640311519433,-0.0430956298828125,8.32703337402344,5.592855078125
3.09834444102712,-0.0430956298828125,8.33182177734375,5.59764348144531
3.10028576685992,-0.0718260498046875,8.33182177734375,5.60243188476562
3.10222709269271,-0.076614453125,8.31745656738281,5.60243188476562
3.10416753664344,-0.047884033203125,8.350975390625,5.61200869140625
3.10610798059418,-0.047884033203125,8.34139858398438,5.6311623046875
3.10804842454492,-0.0718260498046875,8.32224497070312,5.592855078125
3.10997809633854,-0.0143652099609375,8.30787976074219,5.61679709472656
3.11190776813216,-0.0335188232421875,8.28393774414062,5.63595070800781
3.11383743992578,-0.0526724365234375,8.3126681640625,5.66468112792969
3.1157578555128,-0.028730419921875,8.28872614746094,5.61200869140625
3.11767827109982,-0.028730419921875,8.32224497070312,5.58327827148437
3.11959868668684,-0.009576806640625,8.28872614746094,5.60722028808594
3.12157393786414,0.009576806640625,8.29830295410156,5.592855078125
3.12354918904144,-0.0047884033203125,8.350975390625,5.56891306152344
3.12552444021874,-0.0239420166015625,8.32224497070312,5.53060583496094
3.12749046871809,-0.009576806640625,8.37491740722656,5.54497104492187
3.12945649721744,-0.0047884033203125,8.350975390625,5.59764348144531
3.13142252571679,-0.028730419921875,8.37491740722656,5.54497104492187
3.13338145703189,0.009576806640625,8.36055219726562,5.54497104492187
3.13534038834699,-0.0143652099609375,8.32703337402344,5.58327827148437
3.13729931966209,-0.0335188232421875,8.36534060058594,5.60722028808594
3.13925747189733,-0.028730419921875,8.34618698730469,5.57370146484375
3.14121562413258,-0.067037646484375,8.36534060058594,5.56891306152344
3.14317377636782,-0.0239420166015625,8.33182177734375,5.60722028808594
3.1451308385423,-0.0430956298828125,8.34139858398438,5.54975944824219
3.14708790071677,-0.0239420166015625,8.33661018066406,5.592855078125
3.14904496289125,-0.0143652099609375,8.35576379394531,5.592855078125
3.15106793815167,-0.0430956298828125,8.35576379394531,5.54497104492187
3.15309091341209,-0.076614453125,8.36055219726562,5.55933625488281
3.1551138886725,-0.05746083984375,8.35576379394531,5.56891306152344
3.15713731857701,-0.0383072265625,8.38449421386719,5.57848986816406
3.15916074848153,-0.09576806640625,8.41322463378906,5.57848986816406
3.16118417838604,-0.100556469726563,8.40364782714844,5.50187541503906
3.16313944140687,-0.0526724365234375,8.37491740722656,5.5545478515625
3.1650947044277,-0.105344873046875,8.38449421386719,5.48272180175781
3.16704996744853,-0.0909796630859375,8.38449421386719,5.51145222167969
3.16900233214038,-0.086191259765625,8.3892826171875,5.54018264160156
3.17095469683222,-0.110133276367187,8.3892826171875,5.54497104492187
3.17290706152406,-0.119710083007812,8.36534060058594,5.53539423828125
3.17485752745288,-0.1149216796875,8.41801303710938,5.48751020507812
3.1768079933817,-0.0909796630859375,8.40364782714844,5.57370146484375
3.17875845931052,-0.0814028564453125,8.40364782714844,5.54018264160156
3.18077673806486,-0.0909796630859375,8.41801303710938,5.52102902832031
3.1827950168192,-0.129286889648437,8.36534060058594,5.47314499511719
3.18481329557355,-0.086191259765625,8.35576379394531,5.516240625
3.18683220659785,-0.0383072265625,8.39407102050781,5.49708701171875
3.18885111762215,-0.0622492431640625,8.36055219726562,5.56891306152344
3.19087002864646,-0.05746083984375,8.350975390625,5.46835659179687
3.19282365223587,-0.076614453125,8.33182177734375,5.50666381835937
3.19477727582528,-0.0909796630859375,8.37012900390625,5.48751020507812
3.19673089941469,-0.09576806640625,8.37012900390625,5.49229860839844
3.19868180924542,-0.0909796630859375,8.37970581054688,5.52581743164062
3.20063271907615,-0.076614453125,8.37970581054688,5.52102902832031
3.20258362890688,-0.086191259765625,8.40364782714844,5.54975944824219
3.20453317784351,-0.09576806640625,8.37491740722656,5.50666381835937
3.20648272678014,-0.0622492431640625,8.38449421386719,5.516240625
3.20843227571677,-0.0526724365234375,8.41801303710938,5.46835659179687
3.21044566547372,-0.0718260498046875,8.39885942382812,5.52102902832031
3.21245905523066,-0.0430956298828125,8.42280144042969,5.49229860839844
3.21447244498761,-0.05746083984375,8.41322463378906,5.4779333984375
3.21648316493119,-0.05746083984375,8.44674345703125,5.43483776855469
3.21849388487477,-0.0909796630859375,8.45153186035156,5.4779333984375
3.22050460481834,-0.067037646484375,8.46110866699219,5.50666381835937
3.22246664843814,-0.0622492431640625,8.46110866699219,5.50187541503906
3.22442869205793,-0.0814028564453125,8.45153186035156,5.46835659179687
3.22639073567773,-0.067037646484375,8.47068547363281,5.46835659179687
3.22835280447113,-0.076614453125,8.44195505371094,5.46356818847656
3.23031487326453,-0.105344873046875,8.45153186035156,5.516240625
3.23227694205794,-0.0909796630859375,8.44195505371094,5.54018264160156
3.23423575119422,-0.076614453125,8.39407102050781,5.54497104492187
3.2361945603305,-0.119710083007812,8.42280144042969,5.43483776855469
3.23815336946679,-0.158017309570312,8.43237824707031,5.45399138183594
3.2401696898878,-0.143652099609375,8.41801303710938,5.48272180175781
3.24218601030881,-0.181959326171875,8.3892826171875,5.45399138183594
3.24420233072982,-0.158017309570312,8.38449421386719,5.46835659179687
3.24621940256142,-0.1915361328125,8.39407102050781,5.51145222167969
3.24823647439302,-0.148440502929687,8.38449421386719,5.45877978515625
3.25025354622461,-0.124498486328125,8.41322463378906,5.48272180175781
3.252211583551,-0.110133276367187,8.44674345703125,5.47314499511719
3.25416962087738,-0.110133276367187,8.41322463378906,5.44441457519531
3.25612765820377,-0.0814028564453125,8.44674345703125,5.45877978515625
3.25808496592946,-0.067037646484375,8.43716665039062,5.44441457519531
3.26004227365515,-0.148440502929687,8.41801303710938,5.45877978515625
3.26199958138085,-0.119710083007812,8.44674345703125,5.44920297851562
3.26395795583831,-0.09576806640625,8.46110866699219,5.43483776855469
3.26591633029578,-0.100556469726563,8.48505068359375,5.45877978515625
3.26787470475324,-0.143652099609375,8.4658970703125,5.48272180175781
3.26989762076886,-0.15322890625,8.504204296875,5.49229860839844
3.27192053678449,-0.124498486328125,8.45632026367188,5.439626171875
3.27394345280011,-0.13407529296875,8.48505068359375,5.53060583496094
3.27596585253969,-0.181959326171875,8.47068547363281,5.45399138183594
3.27798825227928,-0.17238251953125,8.45153186035156,5.45399138183594
3.28001065201886,-0.186747729492187,8.45632026367188,5.51145222167969
3.28196784830792,-0.201112939453125,8.4658970703125,5.54018264160156
3.28392504459699,-0.215478149414062,8.45632026367188,5.51145222167969
3.28588224088605,-0.201112939453125,8.42280144042969,5.516240625
3.28783578016557,-0.258573779296875,8.41322463378906,5.50187541503906
3.28978931944508,-0.24899697265625,8.42758984375,5.55933625488281
3.29174285872459,-0.2681505859375,8.41801303710938,5.46356818847656
3.29369456901105,-0.253785375976562,8.38449421386719,5.439626171875
3.29564627929751,-0.272938989257812,8.3892826171875,5.44920297851562
3.29759798958396,-0.277727392578125,8.39407102050781,5.46356818847656
3.29961351725323,-0.244208569335937,8.42280144042969,5.516240625
3.30162904492251,-0.263362182617187,8.44674345703125,5.45399138183594
3.30364457259178,-0.234631762695312,8.47547387695312,5.439626171875
3.30564649815601,-0.239420166015625,8.45632026367188,5.45399138183594
3.30764842372025,-0.201112939453125,8.49941589355469,5.4779333984375
3.30965034928448,-0.220266552734375,8.44674345703125,5.44920297851562
3.31160878483135,-0.201112939453125,8.48026228027344,5.42047255859375
3.31356722037823,-0.196324536132812,8.45153186035156,5.49229860839844
3.3155256559251,-0.17238251953125,8.47547387695312,5.44441457519531
3.31748358257441,-0.1915361328125,8.51856950683594,5.46356818847656
3.31944150922371,-0.205901342773437,8.504204296875,5.43004936523437
3.32139943587302,-0.21068974609375,8.53772312011719,5.40610734863281
3.32335687272197,-0.220266552734375,8.51378110351562,5.46356818847656
3.32531430957093,-0.253785375976562,8.50899270019531,5.46356818847656
3.32727174641988,-0.234631762695312,8.51856950683594,5.43004936523437
3.32929578287821,-0.272938989257812,8.5425115234375,5.46835659179687
3.33131981933655,-0.296881005859375,8.56166513671875,5.44441457519531
3.33334385579488,-0.28730419921875,8.53772312011719,5.45399138183594
3.33537533333394,-0.258573779296875,8.57124194335938,5.4013189453125
3.33740681087301,-0.263362182617187,8.54729992675781,5.48272180175781
3.33943828841207,-0.282515795898438,8.5425115234375,5.51145222167969
3.34140372547804,-0.282515795898438,8.54729992675781,5.46835659179687
3.34336916254401,-0.335188232421875,8.51856950683594,5.42526096191406
3.34533459960998,-0.320823022460937,8.48026228027344,5.44920297851562
3.34729932834262,-0.28730419921875,8.51378110351562,5.52581743164062
3.34926405707526,-0.296881005859375,8.53293471679688,5.43004936523437
3.3512287858079,-0.234631762695312,8.53293471679688,5.49708701171875
3.35319515169332,-0.3064578125,8.50899270019531,5.46835659179687
3.35516151757873,-0.263362182617187,8.52335791015625,5.46356818847656
3.35712788346414,-0.234631762695312,8.49941589355469,5.52581743164062
3.35916034657178,-0.244208569335937,8.44195505371094,5.53060583496094
3.36119280967942,-0.229843359375,8.45153186035156,5.46835659179687
3.36322527278706,-0.244208569335937,8.43716665039062,5.54497104492187
3.36526274891554,-0.201112939453125,8.44195505371094,5.48751020507812
3.36730022504401,-0.1915361328125,8.45632026367188,5.51145222167969
3.36933770117248,-0.201112939453125,8.43237824707031,5.54018264160156
3.3713148920362,-0.24899697265625,8.42280144042969,5.4779333984375
3.37329208289992,-0.225054956054687,8.45153186035156,5.46356818847656
3.37526927376364,-0.244208569335937,8.49462749023438,5.51145222167969
3.37723607237474,-0.229843359375,8.44674345703125,5.50666381835937
3.37920287098585,-0.196324536132812,8.40843623046875,5.55933625488281
3.38116966959696,-0.21068974609375,8.45153186035156,5.53060583496094
3.38313656022196,-0.215478149414062,8.43716665039062,5.59764348144531
3.38510345084696,-0.234631762695312,8.47547387695312,5.54497104492187
3.38707034147195,-0.225054956054687,8.44674345703125,5.54975944824219
3.38908289735303,-0.24899697265625,8.42758984375,5.516240625
3.39109545323411,-0.21068974609375,8.45153186035156,5.46356818847656
3.39310800911518,-0.225054956054687,8.41801303710938,5.49229860839844
3.3951217656256,-0.239420166015625,8.42758984375,5.48272180175781
3.39713552213602,-0.234631762695312,8.44674345703125,5.56891306152344
3.39914927864643,-0.244208569335937,8.43716665039062,5.53060583496094
3.40110749739643,-0.234631762695312,8.40364782714844,5.5545478515625
3.40306571614643,-0.24899697265625,8.42758984375,5.53060583496094
3.40502393489643,-0.205901342773437,8.40843623046875,5.56891306152344
3.40698145768289,-0.215478149414062,8.40364782714844,5.47314499511719
3.40893898046935,-0.205901342773437,8.40364782714844,5.52581743164062
3.41089650325581,-0.21068974609375,8.43716665039062,5.54018264160156
3.41285484874193,-0.229843359375,8.40843623046875,5.54975944824219
3.41481319422804,-0.21068974609375,8.41322463378906,5.52581743164062
3.41677153971415,-0.28730419921875,8.38449421386719,5.57370146484375
3.41879496853359,-0.2681505859375,8.3892826171875,5.57370146484375
3.42081839735304,-0.239420166015625,8.39885942382812,5.54018264160156
3.42284182617249,-0.220266552734375,8.39407102050781,5.48751020507812
3.4248639810119,-0.229843359375,8.3892826171875,5.58327827148437
3.4268861358513,-0.24899697265625,8.37012900390625,5.50666381835937
3.42890829069071,-0.277727392578125,8.37491740722656,5.54018264160156
3.43086670876797,-0.205901342773437,8.39885942382812,5.57370146484375
3.43282512684523,-0.215478149414062,8.34618698730469,5.54975944824219
3.43478354492248,-0.181959326171875,8.33182177734375,5.53539423828125
3.43674149772196,-0.1915361328125,8.31745656738281,5.56412465820312
3.43869945052144,-0.229843359375,8.33182177734375,5.56412465820312
3.44065740332091,-0.1915361328125,8.350975390625,5.53539423828125
3.44261560557786,-0.205901342773437,8.33661018066406,5.48272180175781
3.4445738078348,-0.196324536132812,8.32224497070312,5.49708701171875
3.44653201009174,-0.177170922851562,8.30787976074219,5.47314499511719
3.44855603797803,-0.177170922851562,8.30787976074219,5.5545478515625
3.45058006586431,-0.177170922851562,8.3126681640625,5.49229860839844
3.45260409375059,-0.148440502929687,8.29351455078125,5.48751020507812
3.4546290922315,-0.186747729492187,8.34618698730469,5.54975944824219
3.4566540907124,-0.13407529296875,8.3126681640625,5.4779333984375
3.4586790891933,-0.1149216796875,8.37970581054688,5.4779333984375
3.46063854470545,-0.158017309570312,8.33182177734375,5.48751020507812
3.46259800021761,-0.138863696289063,8.37970581054688,5.44920297851562
3.46455745572976,-0.167594116210937,8.39407102050781,5.48751020507812
3.46651550466639,-0.143652099609375,8.40843623046875,5.53539423828125
3.46847355360303,-0.177170922851562,8.36055219726562,5.46356818847656
3.47043160253966,-0.158017309570312,8.36534060058594,5.49708701171875
3.47238884364209,-0.143652099609375,8.36055219726562,5.46835659179687
3.47434608474452,-0.143652099609375,8.37012900390625,5.48272180175781
3.47630332584694,-0.1915361328125,8.40843623046875,5.52581743164062
3.47832778266118,-0.15322890625,8.42280144042969,5.50187541503906
3.48035223947541,-0.181959326171875,8.41322463378906,5.54975944824219
3.48237669628965,-0.215478149414062,8.45632026367188,5.56891306152344
3.48440452007437,-0.215478149414062,8.39407102050781,5.54497104492187
3.48643234385909,-0.167594116210937,8.39407102050781,5.48751020507812
3.48846016764381,-0.229843359375,8.42280144042969,5.53060583496094
3.49041088064294,-0.205901342773437,8.42758984375,5.54018264160156
3.49236159364207,-0.234631762695312,8.43716665039062,5.48272180175781
3.49431230664121,-0.234631762695312,8.42758984375,5.51145222167969
3.49625775618548,-0.220266552734375,8.40843623046875,5.54018264160156
3.49820320572975,-0.263362182617187,8.41322463378906,5.49708701171875
3.50014865527402,-0.244208569335937,8.39885942382812,5.49708701171875
3.50209179503096,-0.239420166015625,8.42758984375,5.52581743164062
3.5040349347879,-0.24899697265625,8.41322463378906,5.55933625488281
3.50597807454484,-0.282515795898438,8.42280144042969,5.516240625
3.50798346668894,-0.220266552734375,8.42280144042969,5.49708701171875
3.50998885883303,-0.234631762695312,8.45632026367188,5.48751020507812
3.51199425097712,-0.229843359375,8.43716665039062,5.52102902832031
3.51400244987036,-0.21068974609375,8.42280144042969,5.48751020507812
3.51601064876359,-0.263362182617187,8.3892826171875,5.50187541503906
3.51801884765682,-0.229843359375,8.40364782714844,5.48272180175781
3.51996806977053,-0.201112939453125,8.39407102050781,5.49708701171875
3.52191729188425,-0.201112939453125,8.43716665039062,5.47314499511719
3.52386651399796,-0.229843359375,8.45632026367188,5.54018264160156
3.52581235362469,-0.1915361328125,8.39407102050781,5.49229860839844
3.52775819325142,-0.205901342773437,8.41322463378906,5.49229860839844
3.52970403287816,-0.196324536132812,8.46110866699219,5.5545478515625
3.53164805523059,-0.229843359375,8.4658970703125,5.57848986816406
3.53359207758302,-0.234631762695312,8.48505068359375,5.53060583496094
3.53553609993546,-0.196324536132812,8.44674345703125,5.516240625
3.53753744097278,-0.196324536132812,8.45632026367188,5.53060583496094
3.53953878201011,-0.225054956054687,8.45632026367188,5.51145222167969
3.54154012304744,-0.229843359375,8.50899270019531,5.50187541503906
3.54353983507001,-0.201112939453125,8.49462749023438,5.50666381835937
3.54553954709258,-0.205901342773437,8.49462749023438,5.58806667480469
3.54753925911515,-0.181959326171875,8.4658970703125,5.5545478515625
3.54949854242679,-0.239420166015625,8.46110866699219,5.54018264160156
3.55145782573842,-0.215478149414062,8.48026228027344,5.49229860839844
3.55341710905005,-0.229843359375,8.50899270019531,5.53060583496094
3.55537937586863,-0.220266552734375,8.48505068359375,5.53539423828125
3.55734164268721,-0.239420166015625,8.48983908691406,5.53060583496094
3.55930390950579,-0.225054956054687,8.43237824707031,5.55933625488281
3.56126650824711,-0.2681505859375,8.4658970703125,5.53060583496094
3.56322910698843,-0.229843359375,8.43716665039062,5.51145222167969
3.56519170572975,-0.229843359375,8.41322463378906,5.54018264160156
3.56721677864641,-0.234631762695312,8.42280144042969,5.52102902832031
3.56924185156308,-0.21068974609375,8.43716665039062,5.57848986816406
3.57126692447974,-0.201112939453125,8.46110866699219,5.52102902832031
3.57329349576881,-0.225054956054687,8.4658970703125,5.52102902832031
3.57532006705787,-0.1915361328125,8.48505068359375,5.55933625488281
3.57734663834694,-0.234631762695312,8.48026228027344,5.52102902832031
3.57930588075145,-0.2681505859375,8.44195505371094,5.53060583496094
3.58126512315597,-0.229843359375,8.45632026367188,5.48751020507812
3.58322436556048,-0.24899697265625,8.45153186035156,5.54018264160156
3.58518257487038,-0.272938989257812,8.44674345703125,5.54497104492187
3.58714078418027,-0.21068974609375,8.44195505371094,5.57370146484375
3.58909899349017,-0.301669409179687,8.45153186035156,5.516240625
3.59105678949711,-0.24899697265625,8.44195505371094,5.49229860839844
3.59301458550406,-0.215478149414062,8.41801303710938,5.5545478515625
3.594972381511,-0.244208569335937,8.42758984375,5.54497104492187
3.59699551323843,-0.263362182617187,8.41322463378906,5.59764348144531
3.59901864496586,-0.253785375976562,8.41322463378906,5.53060583496094
3.60104177669329,-0.24899697265625,8.42280144042969,5.56891306152344
3.60306637814729,-0.24899697265625,8.42280144042969,5.53539423828125
3.60509097960128,-0.244208569335937,8.42758984375,5.56412465820312
3.60711558105527,-0.215478149414062,8.43716665039062,5.56412465820312
3.6091412768018,-0.234631762695312,8.44195505371094,5.57848986816406
3.61116697254833,-0.234631762695312,8.38449421386719,5.53539423828125
3.61319266829486,-0.24899697265625,8.41801303710938,5.56891306152344
3.61515403276969,-0.28730419921875,8.3892826171875,5.56412465820312
3.61711539724451,-0.253785375976562,8.39885942382812,5.52102902832031
3.61907676171934,-0.253785375976562,8.42758984375,5.52581743164062
3.62103682541292,-0.234631762695312,8.39407102050781,5.57370146484375
3.6229968891065,-0.244208569335937,8.37012900390625,5.57848986816406
3.62495695280008,-0.263362182617187,8.40364782714844,5.54975944824219
3.62699632997022,-0.253785375976562,8.37970581054688,5.54497104492187
3.62903570714036,-0.239420166015625,8.39885942382812,5.58327827148437
3.6310750843105,-0.239420166015625,8.37970581054688,5.65510432128906
3.63311668684956,-0.215478149414062,8.39407102050781,5.6311623046875
3.63515828938862,-0.244208569335937,8.37491740722656,5.63595070800781
3.63719989192768,-0.24899697265625,8.37491740722656,5.592855078125
3.63917333463601,-0.24899697265625,8.36055219726562,5.60243188476562
3.64114677734435,-0.225054956054687,8.37970581054688,5.60722028808594
3.64312022005268,-0.263362182617187,8.37012900390625,5.592855078125
3.64509343576449,-0.244208569335937,8.39407102050781,5.53060583496094
3.6470666514763,-0.24899697265625,8.39885942382812,5.57370146484375
3.64903986718811,-0.220266552734375,8.38449421386719,5.53539423828125
3.65101740375495,-0.244208569335937,8.36055219726562,5.55933625488281
3.65299494032179,-0.220266552734375,8.40843623046875,5.58806667480469
3.65497247688863,-0.21068974609375,8.36055219726562,5.51145222167969
3.65699490473151,-0.186747729492187,8.40364782714844,5.50666381835937
3.65901733257439,-0.186747729492187,8.37012900390625,5.51145222167969
3.66103976041727,-0.229843359375,8.37970581054688,5.58327827148437
3.66306443598151,-0.225054956054687,8.36055219726562,5.56891306152344
3.66508911154574,-0.258573779296875,8.3892826171875,5.52102902832031
3.66711378710998,-0.229843359375,8.38449421386719,5.5545478515625
3.66914830588169,-0.215478149414062,8.39407102050781,5.53539423828125
3.67118282465339,-0.24899697265625,8.350975390625,5.57370146484375
3.67321734342509,-0.244208569335937,8.36055219726562,5.50666381835937
3.67518922547805,-0.24899697265625,8.37012900390625,5.55933625488281
3.677161107531,-0.253785375976562,8.38449421386719,5.5545478515625
3.67913298958395,-0.215478149414062,8.40364782714844,5.53060583496094
3.68110082487041,-0.258573779296875,8.41322463378906,5.49229860839844
3.68306866015687,-0.292092602539062,8.42758984375,5.55933625488281
3.68503649544333,-0.225054956054687,8.44674345703125,5.64073911132812
3.68705517382874,-0.258573779296875,8.42280144042969,5.5545478515625
3.68907385221416,-0.253785375976562,8.41322463378906,5.57370146484375
3.69109253059958,-0.234631762695312,8.3892826171875,5.52581743164062
3.69311424761347,-0.258573779296875,8.41322463378906,5.58327827148437
3.69513596462735,-0.21068974609375,8.42758984375,5.52581743164062
3.69715768164124,-0.258573779296875,8.41801303710938,5.52581743164062
3.69919550195374,-0.244208569335937,8.40843623046875,5.54497104492187
3.70123332226624,-0.277727392578125,8.43716665039062,5.5545478515625
3.70327114257874,-0.229843359375,8.45153186035156,5.57848986816406
3.70525295301711,-0.277727392578125,8.40364782714844,5.56412465820312
3.70723476345547,-0.311246215820312,8.45153186035156,5.53060583496094
3.70921657389384,-0.2681505859375,8.40843623046875,5.49229860839844
3.71119885753099,-0.296881005859375,8.39407102050781,5.57848986816406
3.71318114116814,-0.24899697265625,8.41801303710938,5.57848986816406
3.7151634248053,-0.272938989257812,8.43237824707031,5.57848986816406
3.71718751345547,-0.253785375976562,8.45632026367188,5.53539423828125
3.71921160210564,-0.3064578125,8.44195505371094,5.56891306152344
3.72123569075582,-0.244208569335937,8.45153186035156,5.61200869140625
3.72325957552144,-0.186747729492187,8.4658970703125,5.61200869140625
3.72528346028707,-0.234631762695312,8.44195505371094,5.58806667480469
3.72730734505269,-0.258573779296875,8.40364782714844,5.58327827148437
3.72933170204054,-0.258573779296875,8.3892826171875,5.55933625488281
3.73135605902839,-0.239420166015625,8.40843623046875,5.54018264160156
3.73338041601625,-0.225054956054687,8.39407102050781,5.56891306152344
3.73534133300844,-0.220266552734375,8.3892826171875,5.56412465820312
3.73730225000062,-0.220266552734375,8.41801303710938,5.65510432128906
3.73926316699281,-0.201112939453125,8.39885942382812,5.57848986816406
3.74122366167597,-0.177170922851562,8.3892826171875,5.60722028808594
3.74318415635913,-0.17238251953125,8.41322463378906,5.52581743164062
3.7451446510423,-0.229843359375,8.38449421386719,5.56412465820312
3.74716997265688,-0.177170922851562,8.42280144042969,5.54018264160156
3.74919529427146,-0.205901342773437,8.41322463378906,5.56891306152344
3.75122061588604,-0.205901342773437,8.37970581054688,5.54497104492187
3.75324714637649,-0.225054956054687,8.38449421386719,5.592855078125
3.75527367686694,-0.220266552734375,8.40843623046875,5.59764348144531
3.75730020735739,-0.1915361328125,8.43716665039062,5.54018264160156
3.75932734440166,-0.253785375976562,8.36055219726562,5.63595070800781
3.76135448144593,-0.292092602539062,8.37491740722656,5.56412465820312
3.7633816184902,-0.253785375976562,8.35576379394531,5.53539423828125
3.76533894303447,-0.263362182617187,8.36055219726562,5.60243188476562
3.76729626757874,-0.272938989257812,8.33182177734375,5.58327827148437
3.76925359212301,-0.277727392578125,8.3892826171875,5.5545478515625
3.77120768880269,-0.272938989257812,8.36055219726562,5.6311623046875
3.77316178548238,-0.253785375976562,8.39407102050781,5.55933625488281
3.77511588216207,-0.301669409179687,8.35576379394531,5.53539423828125
3.77721473719679,-0.282515795898438,8.39407102050781,5.53060583496094
3.77931359223151,-0.282515795898438,8.40364782714844,5.53539423828125
3.78141244726623,-0.277727392578125,8.34139858398438,5.56891306152344
3.78351635351623,-0.311246215820312,8.35576379394531,5.54497104492187
3.78562025976623,-0.3064578125,8.31745656738281,5.54975944824219
3.78772416601623,-0.263362182617187,8.33661018066406,5.53060583496094
3.78983070659783,-0.292092602539062,8.350975390625,5.57370146484375
3.79193724717943,-0.258573779296875,8.34139858398438,5.54975944824219
3.79404378776103,-0.272938989257812,8.34139858398438,5.54018264160156
3.796078685873,-0.277727392578125,8.350975390625,5.56412465820312
3.79811358398498,-0.330399829101562,8.350975390625,5.53539423828125
3.80014848209696,-0.253785375976562,8.34618698730469,5.58806667480469
3.80218077777838,-0.296881005859375,8.33661018066406,5.62158549804687
3.8042130734598,-0.28730419921875,8.37970581054688,5.516240625
3.80624536914122,-0.296881005859375,8.350975390625,5.49708701171875
3.8082759329433,-0.253785375976562,8.32703337402344,5.60722028808594
3.81030649674538,-0.28730419921875,8.38449421386719,5.64073911132812
3.81233706054746,-0.292092602539062,8.31745656738281,5.60243188476562
3.81436582226621,-0.2681505859375,8.33182177734375,5.56891306152344
3.81639458398496,-0.301669409179687,8.34139858398438,5.592855078125
3.81842334570371,-0.258573779296875,8.32703337402344,5.58806667480469
3.82348614086972,-0.225054956054687,8.37491740722656,5.60722028808594
3.82854893603574,-0.272938989257812,8.3892826171875,5.61200869140625
3.83361173120176,-0.24899697265625,8.35576379394531,5.592855078125
3.83562741045523,-0.253785375976562,8.35576379394531,5.65510432128906
3.8376430897087,-0.263362182617187,8.3892826171875,5.65031591796875
3.83965876896218,-0.234631762695312,8.36534060058594,5.6311623046875
3.8416885802686,-0.258573779296875,8.36534060058594,5.58327827148437
3.84371839157503,-0.220266552734375,8.36055219726562,5.64073911132812
3.84574820288145,-0.272938989257812,8.350975390625,5.65031591796875
3.8477779951449,-0.205901342773437,8.36534060058594,5.59764348144531
3.84980778740836,-0.24899697265625,8.3892826171875,5.60243188476562
3.85183757967181,-0.234631762695312,8.42758984375,5.60722028808594
3.85384572501686,-0.215478149414062,8.37491740722656,5.5545478515625
3.85585387036192,-0.253785375976562,8.3892826171875,5.61679709472656
3.85786201570697,-0.234631762695312,8.36055219726562,5.58806667480469
3.85989292759933,-0.253785375976562,8.37970581054688,5.58327827148437
3.86192383949169,-0.225054956054687,8.36534060058594,5.592855078125
3.86395475138405,-0.244208569335937,8.34139858398438,5.592855078125
3.86598667228249,-0.1915361328125,8.350975390625,5.592855078125
3.86801859318093,-0.186747729492187,8.35576379394531,5.57848986816406
3.87005051407937,-0.17238251953125,8.38449421386719,5.62158549804687
3.87208240437885,-0.239420166015625,8.34618698730469,5.63595070800781
3.87411429467832,-0.201112939453125,8.33182177734375,5.5545478515625
3.8761461849778,-0.21068974609375,8.37491740722656,5.63595070800781
3.87817737057893,-0.21068974609375,8.37491740722656,5.56891306152344
3.88020855618005,-0.21068974609375,8.39885942382812,5.6311623046875
3.88223974178118,-0.1915361328125,8.39407102050781,5.62158549804687
3.88423727265141,-0.162805712890625,8.44674345703125,5.60243188476562
3.88623480352163,-0.158017309570312,8.35576379394531,5.62158549804687
3.88823233439186,-0.215478149414062,8.40843623046875,5.61679709472656
3.89026230824168,-0.1915361328125,8.39407102050781,5.50187541503906
3.89229228209151,-0.186747729492187,8.39885942382812,5.61200869140625
3.89432225594134,-0.181959326171875,8.41801303710938,5.58806667480469
3.89635262318309,-0.201112939453125,8.42758984375,5.60243188476562
3.89838299042485,-0.201112939453125,8.38449421386719,5.60243188476562
3.9004133576666,-0.181959326171875,8.40364782714844,5.56412465820312
3.90244449292051,-0.21068974609375,8.38449421386719,5.5545478515625
3.90447562817442,-0.186747729492187,8.40843623046875,5.592855078125
3.90650676342832,-0.205901342773437,8.38449421386719,5.58806667480469
3.90853783184195,-0.234631762695312,8.39885942382812,5.58806667480469
3.91056890025558,-0.17238251953125,8.37491740722656,5.60243188476562
3.91259996866921,-0.201112939453125,8.36055219726562,5.55933625488281
3.91459793986062,-0.215478149414062,8.36534060058594,5.64552751464844
3.91659591105202,-0.177170922851562,8.42758984375,5.61200869140625
3.91859388224343,-0.234631762695312,8.41801303710938,5.69819995117187
3.92062479136887,-0.234631762695312,8.39407102050781,5.63595070800781
3.9226557004943,-0.201112939453125,8.350975390625,5.61679709472656
3.92468660961974,-0.21068974609375,8.40843623046875,5.62158549804687
3.92672161824604,-0.17238251953125,8.3892826171875,5.64552751464844
3.92875662687235,-0.1915361328125,8.42758984375,5.63595070800781
3.93079163549865,-0.148440502929687,8.42758984375,5.64552751464844
3.93282652487583,-0.177170922851562,8.40843623046875,5.62637390136719
3.934861414253,-0.13407529296875,8.42758984375,5.65031591796875
3.93689630363017,-0.148440502929687,8.45153186035156,5.67425793457031
3.93893071736716,-0.158017309570312,8.41801303710938,5.66946953125
3.94096513110414,-0.177170922851562,8.40364782714844,5.7077767578125
3.94299954484112,-0.129286889648437,8.39885942382812,5.64552751464844
3.94506652292271,-0.13407529296875,8.35576379394531,5.65510432128906
3.94713350100431,-0.158017309570312,8.33661018066406,5.68862314453125
3.94920047908591,-0.143652099609375,8.34618698730469,5.70298835449219
3.95123541229988,-0.13407529296875,8.33661018066406,5.66946953125
3.95327034551386,-0.119710083007812,8.33182177734375,5.68383474121094
3.95530527872783,-0.148440502929687,8.30309135742187,5.65989272460937
3.95734264884502,-0.110133276367187,8.29830295410156,5.61679709472656
3.9593800189622,-0.15322890625,8.25999572753906,5.62637390136719
3.96141738907939,-0.138863696289063,8.30309135742187,5.62158549804687
3.96345581458937,-0.105344873046875,8.2743609375,5.58327827148437
3.96549424009936,-0.143652099609375,8.29351455078125,5.64073911132812
3.96753266560934,-0.148440502929687,8.25520732421875,5.71256516113281
3.96957104950691,-0.13407529296875,8.29830295410156,5.66946953125
3.97160943340448,-0.148440502929687,8.26478413085937,5.61200869140625
3.97364781730205,-0.138863696289063,8.27914934082031,5.58327827148437
3.97565325279467,-0.1915361328125,8.30787976074219,5.60722028808594
3.97765868828729,-0.167594116210937,8.31745656738281,5.63595070800781
3.97966412377992,-0.13407529296875,8.31745656738281,5.58327827148437
3.98169204652297,-0.129286889648437,8.28393774414062,5.60722028808594
3.98371996926603,-0.177170922851562,8.36055219726562,5.67904633789062
3.98574789200908,-0.186747729492187,8.34618698730469,5.66468112792969
3.9877737282721,-0.177170922851562,8.32703337402344,5.63595070800781
3.98979956453512,-0.220266552734375,8.32703337402344,5.61200869140625
3.99182540079814,-0.205901342773437,8.34139858398438,5.57370146484375
3.99384825225213,-0.196324536132812,8.34618698730469,5.65510432128906
3.99587110370613,-0.201112939453125,8.34618698730469,5.58806667480469
3.99789395516012,-0.1915361328125,8.37970581054688,5.65989272460937
3.99991585869744,-0.162805712890625,8.33661018066406,5.66946953125
4.00193776223477,-0.205901342773437,8.36055219726562,5.60243188476562
4.00395966577209,-0.220266552734375,8.37491740722656,5.57370146484375
4.00602136737799,-0.1915361328125,8.37012900390625,5.6311623046875
4.0080830689839,-0.220266552734375,8.36534060058594,5.5545478515625
4.0101447705898,-0.201112939453125,8.38449421386719,5.65031591796875
4.01217768937235,-0.220266552734375,8.38449421386719,5.66468112792969
4.0142106081549,-0.201112939453125,8.3892826171875,5.67425793457031
4.01624352693745,-0.181959326171875,8.39407102050781,5.60243188476562
4.01827666956983,-0.21068974609375,8.37491740722656,5.67425793457031
4.02030981220221,-0.201112939453125,8.39407102050781,5.55933625488281
4.02234295483459,-0.205901342773437,8.40364782714844,5.53060583496094
4.0243755970872,-0.167594116210937,8.42758984375,5.59764348144531
4.0264082393398,-0.24899697265625,8.38449421386719,5.54018264160156
4.02844088159241,-0.1915361328125,8.41322463378906,5.60243188476562
4.03047245445483,-0.215478149414062,8.42758984375,5.54018264160156
4.03250402731724,-0.239420166015625,8.42758984375,5.57848986816406
4.03453560017966,-0.263362182617187,8.44674345703125,5.5545478515625
4.03660314808547,-0.263362182617187,8.46110866699219,5.54497104492187
4.03867069599128,-0.244208569335937,8.44195505371094,5.58806667480469
4.0407382438971,-0.28730419921875,8.42280144042969,5.55933625488281
4.04277677221741,-0.258573779296875,8.41801303710938,5.57370146484375
4.04481530053773,-0.277727392578125,8.43237824707031,5.5545478515625
4.04685382885804,-0.3064578125,8.43237824707031,5.50666381835937
4.04889348868877,-0.292092602539062,8.43716665039062,5.49229860839844
4.0509331485195,-0.292092602539062,8.41322463378906,5.50666381835937
4.05297280835023,-0.3064578125,8.43237824707031,5.52102902832031
4.05501371904901,-0.335188232421875,8.40364782714844,5.59764348144531
4.0570546297478,-0.311246215820312,8.39407102050781,5.48751020507812
4.05909554044658,-0.272938989257812,8.43716665039062,5.49708701171875
4.06113781480639,-0.296881005859375,8.41322463378906,5.49708701171875
4.0631800891662,-0.2681505859375,8.37491740722656,5.60243188476562
4.06522236352601,-0.244208569335937,8.42280144042969,5.51145222167969
4.06728918584589,-0.239420166015625,8.38449421386719,5.53539423828125
4.06935600816577,-0.263362182617187,8.33661018066406,5.56891306152344
4.07142283048565,-0.263362182617187,8.34618698730469,5.50187541503906
4.07346030183982,-0.244208569335937,8.350975390625,5.54497104492187
4.07549777319399,-0.253785375976562,8.33661018066406,5.51145222167969
4.07753524454816,-0.24899697265625,8.29830295410156,5.54497104492187
4.07957397317229,-0.24899697265625,8.30309135742187,5.62158549804687
4.08161270179643,-0.186747729492187,8.30787976074219,5.52102902832031
4.08365143042056,-0.234631762695312,8.31745656738281,5.48272180175781
4.08569120347829,-0.234631762695312,8.29351455078125,5.5545478515625
4.08773097653601,-0.21068974609375,8.24084211425781,5.53539423828125
4.08977074959374,-0.1915361328125,8.29351455078125,5.50187541503906
4.09181179874738,-0.196324536132812,8.32224497070312,5.47314499511719
4.09385284790102,-0.205901342773437,8.32224497070312,5.53060583496094
4.09589389705467,-0.17238251953125,8.30787976074219,5.49708701171875
4.0979718858242,-0.177170922851562,8.29351455078125,5.54497104492187
4.10004987459374,-0.196324536132812,8.31745656738281,5.47314499511719
4.10212786336327,-0.186747729492187,8.32224497070312,5.45399138183594
4.1041737856723,-0.181959326171875,8.32224497070312,5.48751020507812
4.10621970798133,-0.205901342773437,8.38449421386719,5.5545478515625
4.10826563029036,-0.177170922851562,8.39407102050781,5.5545478515625
4.11030844268185,-0.1915361328125,8.39885942382812,5.49708701171875
4.11235125507335,-0.201112939453125,8.43237824707031,5.50666381835937
4.11439406746484,-0.225054956054687,8.41801303710938,5.52102902832031
4.1164357090664,-0.186747729492187,8.47068547363281,5.47314499511719
4.11847735066797,-0.148440502929687,8.44195505371094,5.49708701171875
4.12051899226953,-0.186747729492187,8.48983908691406,5.53539423828125
4.12255973163585,-0.1915361328125,8.48505068359375,5.52102902832031
4.12460047100217,-0.196324536132812,8.51856950683594,5.5545478515625
4.12664121036849,-0.201112939453125,8.48983908691406,5.54018264160156
4.1286938668355,-0.196324536132812,8.504204296875,5.54975944824219
4.13074652330252,-0.205901342773437,8.48026228027344,5.56891306152344
4.13279917976953,-0.205901342773437,8.55687673339844,5.49708701171875
4.13481717347613,-0.148440502929687,8.48026228027344,5.46835659179687
4.13683516718273,-0.21068974609375,8.504204296875,5.53060583496094
4.13885316088932,-0.177170922851562,8.49941589355469,5.53060583496094
4.14086822300955,-0.181959326171875,8.48983908691406,5.56412465820312
4.14288328512977,-0.167594116210937,8.49462749023438,5.54497104492187
4.14489834725,-0.17238251953125,8.49462749023438,5.516240625
4.14691173440277,-0.1915361328125,8.4658970703125,5.54497104492187
4.14892512155555,-0.225054956054687,8.48026228027344,5.48272180175781
4.15093850870833,-0.186747729492187,8.50899270019531,5.56891306152344
4.15295318725651,-0.205901342773437,8.54729992675781,5.53539423828125
4.15496786580469,-0.196324536132812,8.54729992675781,5.51145222167969
4.15698254435287,-0.1915361328125,8.52335791015625,5.53060583496094
4.15903812622136,-0.205901342773437,8.51856950683594,5.51145222167969
4.16109370808985,-0.215478149414062,8.51378110351562,5.52581743164062
4.16314928995834,-0.1915361328125,8.504204296875,5.50666381835937
4.16518218405557,-0.1915361328125,8.55687673339844,5.55933625488281
4.16721507815279,-0.225054956054687,8.49462749023438,5.52102902832031
4.16924797225002,-0.167594116210937,8.52335791015625,5.56412465820312
4.17128070993448,-0.15322890625,8.50899270019531,5.53060583496094
4.17331344761894,-0.186747729492187,8.48983908691406,5.55933625488281
4.17534618530341,-0.138863696289063,8.51856950683594,5.58806667480469
4.17737868112589,-0.148440502929687,8.43237824707031,5.54018264160156
4.17941117694837,-0.181959326171875,8.43237824707031,5.52102902832031
4.18144367277086,-0.1149216796875,8.45632026367188,5.56412465820312
4.18347532408379,-0.143652099609375,8.48505068359375,5.60243188476562
4.18550697539673,-0.148440502929687,8.46110866699219,5.57848986816406
4.18753862670966,-0.124498486328125,8.44195505371094,5.60722028808594
4.18960287850003,-0.105344873046875,8.46110866699219,5.54975944824219
4.19166713029039,-0.1149216796875,8.45153186035156,5.53539423828125
4.19373138208076,-0.1149216796875,8.45153186035156,5.56891306152344
4.1957645662713,-0.110133276367187,8.40364782714844,5.592855078125
4.19779775046183,-0.105344873046875,8.44195505371094,5.52581743164062
4.19983093465236,-0.105344873046875,8.41801303710938,5.54975944824219
4.20186404809637,-0.076614453125,8.41322463378906,5.56412465820312
4.20389716154038,-0.05746083984375,8.42280144042969,5.57848986816406
4.20593027498439,-0.110133276367187,8.41801303710938,5.61200869140625
4.20796285023396,-0.0622492431640625,8.42280144042969,5.48751020507812
4.20999542548353,-0.0383072265625,8.42280144042969,5.52581743164062
4.2120280007331,-0.028730419921875,8.44674345703125,5.516240625
4.21406234388631,-0.01915361328125,8.42758984375,5.5545478515625
4.21609668703952,-0.01915361328125,8.44195505371094,5.52581743164062
4.21813103019273,-0.0335188232421875,8.42280144042969,5.516240625
4.22019690866496,-0.0335188232421875,8.39407102050781,5.53060583496094
4.22226278713718,-0.067037646484375,8.40364782714844,5.52581743164062
4.2243286656094,-0.0526724365234375,8.3892826171875,5.50187541503906
4.22636592211982,-0.0383072265625,8.41322463378906,5.592855078125
4.22840317863024,-0.028730419921875,8.45153186035156,5.53060583496094
4.23044043514065,-0.05746083984375,8.41322463378906,5.56891306152344
4.23247706887546,-0.047884033203125,8.41801303710938,5.516240625
4.23451370261028,-0.076614453125,8.41322463378906,5.53539423828125
4.23655033634509,-0.076614453125,8.39885942382812,5.53060583496094
4.23858645814413,-0.05746083984375,8.40843623046875,5.5545478515625
4.24062257994317,-0.0718260498046875,8.37491740722656,5.47314499511719
4.24265870174222,-0.0718260498046875,8.40364782714844,5.64073911132812
4.24469481046618,-0.067037646484375,8.39407102050781,5.516240625
4.24673091919013,-0.067037646484375,8.350975390625,5.53060583496094
4.24876702791409,-0.0814028564453125,8.36534060058594,5.54497104492187
4.25083452704603,-0.129286889648437,8.37491740722656,5.58806667480469
4.25290202617798,-0.0718260498046875,8.40364782714844,5.50666381835937
4.25496952530992,-0.09576806640625,8.38449421386719,5.56412465820312
4.25700476201782,-0.119710083007812,8.3892826171875,5.57848986816406
4.25903999872572,-0.0814028564453125,8.41322463378906,5.57370146484375
4.26107523543362,-0.0814028564453125,8.42280144042969,5.50666381835937
4.2631122164449,-0.105344873046875,8.43716665039062,5.5545478515625
4.26514919745619,-0.0814028564453125,8.40843623046875,5.54497104492187
4.26718617846747,-0.067037646484375,8.39407102050781,5.41568415527344
4.26922445651652,-0.086191259765625,8.40843623046875,5.49708701171875
4.27126273456556,-0.09576806640625,8.37012900390625,5.48272180175781
4.27330101261461,-0.067037646484375,8.37970581054688,5.54975944824219
4.27533942336765,-0.076614453125,8.350975390625,5.54497104492187
4.27737783412069,-0.129286889648437,8.37970581054688,5.54975944824219
4.27941624487373,-0.100556469726563,8.39885942382812,5.49708701171875
4.28148089141236,-0.148440502929687,8.40364782714844,5.50666381835937
4.28354553795099,-0.15322890625,8.39407102050781,5.516240625
4.28561018448962,-0.201112939453125,8.36055219726562,5.46835659179687
4.28764153198312,-0.167594116210937,8.41322463378906,5.48751020507812
4.28967287947661,-0.148440502929687,8.41322463378906,5.46835659179687
4.2917042269701,-0.162805712890625,8.40364782714844,5.53539423828125
4.29373088604128,-0.13407529296875,8.41801303710938,5.52581743164062
4.29575754511246,-0.148440502929687,8.39407102050781,5.53539423828125
4.29778420418364,-0.138863696289063,8.44674345703125,5.48272180175781
4.29987919436376,-0.158017309570312,8.43237824707031,5.52581743164062
4.30197418454389,-0.15322890625,8.43237824707031,5.49708701171875
4.30406917472401,-0.1915361328125,8.37970581054688,5.516240625
4.30616426809423,-0.105344873046875,8.39885942382812,5.46835659179687
4.30825936146446,-0.124498486328125,8.41322463378906,5.44441457519531
4.31035445483468,-0.138863696289063,8.43237824707031,5.48751020507812
4.31242194485204,-0.13407529296875,8.42758984375,5.54018264160156
4.3144894348694,-0.119710083007812,8.41801303710938,5.4779333984375
4.31655692488676,-0.119710083007812,8.42280144042969,5.48272180175781
4.31859587871706,-0.105344873046875,8.43237824707031,5.50187541503906
4.32063483254736,-0.124498486328125,8.4658970703125,5.54018264160156
4.32267378637765,-0.1149216796875,8.42758984375,5.46835659179687
4.32471286585899,-0.13407529296875,8.45153186035156,5.516240625
4.32675194534033,-0.124498486328125,8.46110866699219,5.44920297851562
4.32879102482167,-0.13407529296875,8.47068547363281,5.44920297851562
4.33082797436594,-0.158017309570312,8.48505068359375,5.56891306152344
4.33286492391021,-0.100556469726563,8.41322463378906,5.48751020507812
4.33490187345448,-0.138863696289063,8.45153186035156,5.47314499511719
4.3369367354879,-0.143652099609375,8.4658970703125,5.50666381835937
4.33897159752132,-0.158017309570312,8.45153186035156,5.50666381835937
4.34100645955474,-0.186747729492187,8.43716665039062,5.51145222167969
4.34307035712419,-0.13407529296875,8.48026228027344,5.53539423828125
4.34513425469363,-0.17238251953125,8.44674345703125,5.50187541503906
4.34719815226307,-0.15322890625,8.43716665039062,5.48272180175781
4.34923119870404,-0.129286889648437,8.44195505371094,5.516240625
4.35126424514501,-0.148440502929687,8.47547387695312,5.51145222167969
4.35329729158599,-0.158017309570312,8.48983908691406,5.49229860839844
4.35532996774701,-0.148440502929687,8.45632026367188,5.54497104492187
4.35736264390803,-0.138863696289063,8.43716665039062,5.48272180175781
4.35939532006905,-0.158017309570312,8.40843623046875,5.5545478515625
4.36142759231297,-0.15322890625,8.43237824707031,5.49229860839844
4.3634598645569,-0.162805712890625,8.43716665039062,5.45399138183594
4.36549213680082,-0.138863696289063,8.41801303710938,5.50187541503906
4.36752433053997,-0.1149216796875,8.42758984375,5.51145222167969
4.36955652427912,-0.15322890625,8.39885942382812,5.50187541503906
4.37158871801827,-0.186747729492187,8.41322463378906,5.48751020507812
4.37366524264935,-0.13407529296875,8.38449421386719,5.4779333984375
4.37574176728043,-0.15322890625,8.40364782714844,5.516240625
4.37781829191151,-0.138863696289063,8.40843623046875,5.53539423828125
4.3798638238668,-0.15322890625,8.41801303710938,5.52102902832031
4.38190935582209,-0.15322890625,8.37491740722656,5.50666381835937
4.38395488777739,-0.148440502929687,8.41322463378906,5.53539423828125
4.38600084638199,-0.138863696289063,8.37970581054688,5.54975944824219
4.38804680498659,-0.13407529296875,8.36055219726562,5.516240625
4.39009276359119,-0.143652099609375,8.37012900390625,5.46356818847656
4.39213981442669,-0.162805712890625,8.42280144042969,5.52581743164062
4.39418686526219,-0.124498486328125,8.35576379394531,5.48751020507812
4.3962339160977,-0.162805712890625,8.41801303710938,5.54018264160156
4.39828253567235,-0.143652099609375,8.39885942382812,5.48272180175781
4.400331155247,-0.129286889648437,8.38449421386719,5.53060583496094
4.40237977482166,-0.15322890625,8.38449421386719,5.49229860839844
4.40445147810942,-0.129286889648437,8.3892826171875,5.46356818847656
4.40652318139718,-0.15322890625,8.36055219726562,5.516240625
4.40859488468493,-0.138863696289063,8.39407102050781,5.46356818847656
4.41063013528172,-0.1149216796875,8.37491740722656,5.50666381835937
4.41266538587851,-0.13407529296875,8.40364782714844,5.58327827148437
4.4147006364753,-0.09576806640625,8.37491740722656,5.52581743164062
4.41673546015151,-0.110133276367187,8.37491740722656,5.55933625488281
4.41877028382773,-0.110133276367187,8.38449421386719,5.54018264160156
4.42080510750394,-0.100556469726563,8.41322463378906,5.52102902832031
4.42283884714153,-0.119710083007812,8.38449421386719,5.54018264160156
4.42487258677912,-0.100556469726563,8.3892826171875,5.51145222167969
4.4269063264167,-0.1149216796875,8.35576379394531,5.54497104492187
4.4289373872891,-0.124498486328125,8.350975390625,5.4779333984375
4.4309684481615,-0.124498486328125,8.38449421386719,5.50187541503906
4.43299950903389,-0.13407529296875,8.36534060058594,5.50666381835937
4.43505219647964,-0.105344873046875,8.34139858398438,5.47314499511719
4.43710488392539,-0.0909796630859375,8.38449421386719,5.46356818847656
4.43915757137114,-0.148440502929687,8.350975390625,5.53060583496094
4.44118747745838,-0.1149216796875,8.35576379394531,5.4779333984375
4.44321738354562,-0.143652099609375,8.39885942382812,5.57848986816406
4.44524728963286,-0.138863696289063,8.3892826171875,5.49229860839844
4.44727187323746,-0.138863696289063,8.3892826171875,5.49229860839844
4.44929645684206,-0.148440502929687,8.37970581054688,5.48272180175781
4.45132104044666,-0.143652099609375,8.40843623046875,5.43483776855469
4.4533399995938,-0.129286889648437,8.38449421386719,5.50187541503906
4.45535895874093,-0.13407529296875,8.36055219726562,5.4779333984375
4.45737791788806,-0.13407529296875,8.37012900390625,5.46835659179687
4.45939760788372,-0.110133276367187,8.41801303710938,5.50187541503906
4.46141729787939,-0.158017309570312,8.40843623046875,5.53060583496094
4.46343698787505,-0.177170922851562,8.39885942382812,5.44441457519531
4.46549522952001,-0.21068974609375,8.40843623046875,5.47314499511719
4.46755347116498,-0.186747729492187,8.41322463378906,5.49708701171875
4.46961171280995,-0.21068974609375,8.38449421386719,5.43483776855469
4.47164165839371,-0.220266552734375,8.3892826171875,5.42526096191406
4.47367160397748,-0.162805712890625,8.39407102050781,5.44920297851562
4.47570154956125,-0.181959326171875,8.40843623046875,5.44920297851562
4.47772188137548,-0.239420166015625,8.37491740722656,5.47314499511719
4.47974221318972,-0.17238251953125,8.37491740722656,5.45399138183594
4.48176254500396,-0.201112939453125,8.39407102050781,5.44441457519531
4.48377422989979,-0.1915361328125,8.3892826171875,5.44920297851562
4.48578591479562,-0.196324536132812,8.40364782714844,5.48272180175781
4.48779759969145,-0.158017309570312,8.37012900390625,5.44441457519531
4.48980745293581,-0.181959326171875,8.39407102050781,5.42047255859375
4.49181730618017,-0.181959326171875,8.39885942382812,5.47314499511719
4.49382715942453,-0.177170922851562,8.41801303710938,5.46356818847656
4.49588058460899,-0.158017309570312,8.39885942382812,5.44441457519531
4.49793400979345,-0.162805712890625,8.45632026367188,5.46356818847656
4.49998743497791,-0.129286889648437,8.45153186035156,5.42526096191406
4.50202012030777,-0.162805712890625,8.43237824707031,5.48272180175781
4.50405280563763,-0.181959326171875,8.44195505371094,5.439626171875
4.50608549096749,-0.186747729492187,8.45632026367188,5.47314499511719
4.50811755623441,-0.162805712890625,8.47068547363281,5.45399138183594
4.51014962150134,-0.1915361328125,8.47547387695312,5.44920297851562
4.51218168676826,-0.177170922851562,8.504204296875,5.43483776855469
4.51421329636028,-0.17238251953125,8.49941589355469,5.42047255859375
4.51624490595229,-0.181959326171875,8.51378110351562,5.41568415527344
4.5182765155443,-0.110133276367187,8.504204296875,5.42526096191406
4.52030786634725,-0.148440502929687,8.49941589355469,5.45877978515625
4.5223392171502,-0.177170922851562,8.51856950683594,5.40610734863281
4.52437056795315,-0.148440502929687,8.4658970703125,5.42047255859375
4.52643709871487,-0.105344873046875,8.49462749023438,5.439626171875
4.52850362947659,-0.129286889648437,8.47547387695312,5.36780012207031
4.5305701602383,-0.100556469726563,8.47068547363281,5.39653054199219
4.53260879012111,-0.148440502929687,8.4658970703125,5.44441457519531
4.53464742000393,-0.1149216796875,8.53772312011719,5.46835659179687
4.53668604988674,-0.148440502929687,8.48026228027344,5.40610734863281
4.53872428355645,-0.148440502929687,8.48983908691406,5.43004936523437
4.54076251722616,-0.148440502929687,8.49462749023438,5.47314499511719
4.54280075089587,-0.143652099609375,8.48505068359375,5.43004936523437
4.54483842521227,-0.09576806640625,8.49941589355469,5.45399138183594
4.54687609952868,-0.086191259765625,8.49941589355469,5.41568415527344
4.54891377384508,-0.15322890625,8.47547387695312,5.46835659179687
4.55095124617581,-0.119710083007812,8.48983908691406,5.37258852539062
4.55298871850654,-0.105344873046875,8.504204296875,5.44441457519531
4.55502619083727,-0.138863696289063,8.49941589355469,5.46356818847656
4.55705429180298,-0.13407529296875,8.51378110351562,5.43004936523437
4.55908239276869,-0.1149216796875,8.48983908691406,5.43483776855469
4.56111049373441,-0.129286889648437,8.52335791015625,5.439626171875
4.56306819382121,-0.143652099609375,8.49462749023438,5.40610734863281
4.56502589390802,-0.119710083007812,8.48983908691406,5.43483776855469
4.56698359399483,-0.1149216796875,8.48983908691406,5.46835659179687
4.56893680200264,-0.129286889648437,8.49941589355469,5.48272180175781
4.57089001001046,-0.15322890625,8.53293471679688,5.39653054199219
4.57284321801827,-0.138863696289063,8.48505068359375,5.48272180175781
4.5747953411194,-0.138863696289063,8.504204296875,5.42047255859375
4.57674746422053,-0.119710083007812,8.48983908691406,5.42526096191406
4.57869958732165,-0.138863696289063,8.49462749023438,5.43004936523437
4.58065151885377,-0.1149216796875,8.49941589355469,5.39174213867187
4.58260345038589,-0.162805712890625,8.504204296875,5.44441457519531
4.584555381918,-0.177170922851562,8.48505068359375,5.46356818847656
4.58656686710681,-0.148440502929687,8.51856950683594,5.44920297851562
4.58857835229561,-0.13407529296875,8.504204296875,5.43483776855469
4.59058983748441,-0.148440502929687,8.48505068359375,5.43483776855469
4.59260216832209,-0.17238251953125,8.504204296875,5.47314499511719
4.59461449915976,-0.17238251953125,8.5425115234375,5.4779333984375
4.59662682999744,-0.186747729492187,8.49462749023438,5.50666381835937
4.59863350169612,-0.138863696289063,8.50899270019531,5.42047255859375
4.60064017339479,-0.162805712890625,8.52335791015625,5.516240625
4.60264684509347,-0.158017309570312,8.47547387695312,5.39653054199219
4.60462759247575,-0.15322890625,8.52814631347656,5.43483776855469
4.60660833985802,-0.181959326171875,8.49462749023438,5.42526096191406
4.60858908724029,-0.167594116210937,8.48026228027344,5.38695373535156
4.6105520123705,-0.162805712890625,8.52335791015625,5.42047255859375
4.61251493750071,-0.148440502929687,8.49462749023438,5.42047255859375
4.61447786263092,-0.148440502929687,8.51856950683594,5.45399138183594
4.61650317263526,-0.181959326171875,8.55687673339844,5.36780012207031
4.6185284826396,-0.13407529296875,8.49941589355469,5.439626171875
4.62055379264395,-0.181959326171875,8.49941589355469,5.45877978515625
4.62256403049117,-0.186747729492187,8.48505068359375,5.48272180175781
4.62457426833839,-0.162805712890625,8.48983908691406,5.46835659179687
4.62658450618561,-0.162805712890625,8.52814631347656,5.42526096191406
4.62859369661529,-0.167594116210937,8.53772312011719,5.42526096191406
4.63060288704498,-0.143652099609375,8.5425115234375,5.38695373535156
4.63261207747466,-0.162805712890625,8.51856950683594,5.47314499511719
4.6346197437073,-0.138863696289063,8.53293471679688,5.44441457519531
4.63662740993994,-0.1149216796875,8.5425115234375,5.50187541503906
4.63863507617258,-0.124498486328125,8.56166513671875,5.46835659179687
4.64059748046945,-0.100556469726563,8.51856950683594,5.44920297851562
4.64255988476632,-0.143652099609375,8.51856950683594,5.44920297851562
4.64452228906319,-0.162805712890625,8.52335791015625,5.48272180175781
4.64654857736614,-0.110133276367187,8.50899270019531,5.4779333984375
4.64857486566909,-0.15322890625,8.50899270019531,5.43483776855469
4.65060115397203,-0.158017309570312,8.52814631347656,5.47314499511719
4.65262910264825,-0.110133276367187,8.51378110351562,5.516240625
4.65465705132446,-0.158017309570312,8.51856950683594,5.46835659179687
4.65668500000068,-0.110133276367187,8.49941589355469,5.48272180175781
4.65871366145901,-0.148440502929687,8.50899270019531,5.45877978515625
4.66074232291735,-0.09576806640625,8.51856950683594,5.48751020507812
4.66277098437568,-0.1149216796875,8.49462749023438,5.439626171875
4.66479966840346,-0.119710083007812,8.51856950683594,5.52581743164062
4.66682835243124,-0.13407529296875,8.51856950683594,5.48751020507812
4.66885703645902,-0.119710083007812,8.504204296875,5.439626171875
4.67081955089044,-0.124498486328125,8.46110866699219,5.4779333984375
4.67278206532186,-0.100556469726563,8.45632026367188,5.49229860839844
4.67474457975328,-0.09576806640625,8.45153186035156,5.49708701171875
4.67677186512655,-0.138863696289063,8.46110866699219,5.49229860839844
4.67879915049981,-0.105344873046875,8.48026228027344,5.46835659179687
4.68082643587307,-0.105344873046875,8.47068547363281,5.48751020507812
4.68292887196248,-0.162805712890625,8.48505068359375,5.52102902832031
4.68503130805189,-0.105344873046875,8.44674345703125,5.50187541503906
4.68713374414131,-0.086191259765625,8.46110866699219,5.49708701171875
4.68931280599026,-0.076614453125,8.43716665039062,5.53060583496094
4.69149186783922,-0.129286889648437,8.45153186035156,5.516240625
4.69367092968818,-0.0909796630859375,8.43716665039062,5.48751020507812
4.69585104785224,-0.09576806640625,8.45153186035156,5.52581743164062
4.69803116601631,-0.105344873046875,8.45632026367188,5.50187541503906
4.70021128418037,-0.0814028564453125,8.43716665039062,5.53060583496094
4.70232532389391,-0.0430956298828125,8.42280144042969,5.52102902832031
4.70443936360745,-0.086191259765625,8.47068547363281,5.5545478515625
4.706553403321,-0.05746083984375,8.42280144042969,5.45877978515625
4.70866308029582,-0.05746083984375,8.45632026367188,5.52102902832031
4.71077275727065,-0.09576806640625,8.43237824707031,5.48751020507812
4.71288243424547,-0.0909796630859375,8.44195505371094,5.49708701171875
4.71499345583835,-0.09576806640625,8.42758984375,5.516240625
4.71710447743123,-0.067037646484375,8.45153186035156,5.53539423828125
4.71921549902412,-0.0909796630859375,8.40843623046875,5.54018264160156
4.72438537660115,-0.0814028564453125,8.34139858398438,5.50666381835937
4.72955525417819,-0.100556469726563,8.37970581054688,5.516240625
4.73472513175522,-0.124498486328125,8.34618698730469,5.51145222167969
4.74094480710245,-0.0814028564453125,8.3892826171875,5.54497104492187
4.74716448244967,-0.0909796630859375,8.42280144042969,5.56891306152344
4.7533841577969,-0.0430956298828125,8.41322463378906,5.55933625488281
4.75547675897962,-0.028730419921875,8.37491740722656,5.54975944824219
4.75756936016235,-0.0622492431640625,8.44674345703125,5.45877978515625
4.75966196134507,-0.076614453125,8.42758984375,5.516240625
4.76172667868448,-0.09576806640625,8.4658970703125,5.50666381835937
4.76379139602389,-0.100556469726563,8.4658970703125,5.439626171875
4.7658561133633,-0.0909796630859375,8.42758984375,5.46356818847656
4.76789261206122,-0.100556469726563,8.47068547363281,5.46356818847656
4.76992911075914,-0.138863696289063,8.4658970703125,5.45877978515625
4.77196560945705,-0.124498486328125,8.48983908691406,5.4013189453125
4.77400166550089,-0.148440502929687,8.48505068359375,5.41568415527344
4.77603772154472,-0.17238251953125,8.48505068359375,5.41089575195312
4.77807377758856,-0.186747729492187,8.504204296875,5.439626171875
4.78010977400782,-0.225054956054687,8.46110866699219,5.40610734863281
4.78214577042709,-0.196324536132812,8.49462749023438,5.40610734863281
4.78418176684636,-0.220266552734375,8.50899270019531,5.42526096191406
4.78625095771008,-0.244208569335937,8.48983908691406,5.41089575195312
4.7883201485738,-0.258573779296875,8.48026228027344,5.439626171875
4.79038933943751,-0.220266552734375,8.56645354003906,5.44441457519531
4.79242727666624,-0.229843359375,8.50899270019531,5.4013189453125
4.79446521389497,-0.282515795898438,8.49941589355469,5.4013189453125
4.79650315112371,-0.301669409179687,8.56645354003906,5.43004936523437
4.79854190519272,-0.292092602539062,8.504204296875,5.40610734863281
4.80058065926173,-0.28730419921875,8.52814631347656,5.40610734863281
4.80261941333073,-0.253785375976562,8.504204296875,5.38695373535156
4.80465930683117,-0.24899697265625,8.47068547363281,5.41089575195312
4.8066992003316,-0.282515795898438,8.47068547363281,5.46356818847656
4.80873909383203,-0.239420166015625,8.53293471679688,5.38216533203125
4.81078059556815,-0.253785375976562,8.50899270019531,5.40610734863281
4.81282209730426,-0.244208569335937,8.48983908691406,5.32949289550781
4.81486359904037,-0.272938989257812,8.46110866699219,5.38216533203125
4.81693965134071,-0.244208569335937,8.49462749023438,5.39174213867187
4.81901570364106,-0.258573779296875,8.51378110351562,5.40610734863281
4.82109175594141,-0.258573779296875,8.5425115234375,5.44441457519531
4.82313392016666,-0.229843359375,8.50899270019531,5.35343491210937
4.82517608439192,-0.21068974609375,8.53293471679688,5.42047255859375
4.82721824861718,-0.201112939453125,8.51378110351562,5.38695373535156
4.82925925154687,-0.162805712890625,8.51378110351562,5.439626171875
4.83130025447655,-0.201112939453125,8.52335791015625,5.43483776855469
4.83334125740624,-0.1915361328125,8.51856950683594,5.39174213867187
4.83538209849782,-0.177170922851562,8.55208833007812,5.4013189453125
4.8374229395894,-0.201112939453125,8.5425115234375,5.31033928222656
4.83946378068098,-0.196324536132812,8.504204296875,5.4013189453125
4.84150466126908,-0.225054956054687,8.53772312011719,5.38216533203125
4.84354554185719,-0.177170922851562,8.52335791015625,5.37258852539062
4.8455864224453,-0.215478149414062,8.53293471679688,5.42047255859375
4.84766083162498,-0.143652099609375,8.57124194335938,5.41568415527344
4.84973524080467,-0.17238251953125,8.57124194335938,5.41089575195312
4.85180964998436,-0.196324536132812,8.57603034667969,5.4013189453125
4.8538574498433,-0.17238251953125,8.53293471679688,5.42526096191406
4.85590524970224,-0.162805712890625,8.55687673339844,5.33428129882812
4.85795304956118,-0.177170922851562,8.53772312011719,5.47314499511719
4.85999890703731,-0.158017309570312,8.49462749023438,5.38695373535156
4.86204476451344,-0.148440502929687,8.51378110351562,5.36301171875
4.86409062198956,-0.181959326171875,8.5425115234375,5.39653054199219
4.86613589271439,-0.15322890625,8.49941589355469,5.36780012207031
4.86818116343922,-0.143652099609375,8.49462749023438,5.44441457519531
4.87022643416405,-0.167594116210937,8.53293471679688,5.34864650878906
4.87227155693966,-0.143652099609375,8.51856950683594,5.36780012207031
4.87431667971527,-0.186747729492187,8.49941589355469,5.32949289550781
4.87636180249088,-0.181959326171875,8.49941589355469,5.33428129882812
4.87841632766449,-0.181959326171875,8.53293471679688,5.41568415527344
4.8804708528381,-0.17238251953125,8.55208833007812,5.37258852539062
4.88252537801171,-0.167594116210937,8.51378110351562,5.38216533203125
4.88454294181379,-0.143652099609375,8.51856950683594,5.36301171875
4.88656050561587,-0.13407529296875,8.48505068359375,5.40610734863281
4.88857806941796,-0.15322890625,8.49462749023438,5.40610734863281
4.89059293931813,-0.1915361328125,8.49941589355469,5.46356818847656
4.8926078092183,-0.162805712890625,8.50899270019531,5.43483776855469
4.89462267911847,-0.167594116210937,8.51856950683594,5.37737692871094
4.89663587947655,-0.196324536132812,8.51856950683594,5.41568415527344
4.89864907983462,-0.225054956054687,8.48505068359375,5.37737692871094
4.90066228019269,-0.21068974609375,8.51378110351562,5.38695373535156
4.9026752803012,-0.186747729492187,8.49462749023438,5.43483776855469
4.90468828040971,-0.162805712890625,8.50899270019531,5.38216533203125
4.90670128051822,-0.13407529296875,8.504204296875,5.439626171875
4.90875611949391,-0.1149216796875,8.48026228027344,5.4013189453125
4.91081095846961,-0.15322890625,8.47068547363281,5.37258852539062
4.9128657974453,-0.17238251953125,8.50899270019531,5.35343491210937
4.91489831019487,-0.158017309570312,8.53772312011719,5.36301171875
4.91693082294443,-0.143652099609375,8.48505068359375,5.39174213867187
4.91896333569399,-0.158017309570312,8.47547387695312,5.4013189453125
4.92099640953297,-0.13407529296875,8.50899270019531,5.37737692871094
4.92302948337194,-0.138863696289063,8.48026228027344,5.36301171875
4.92506255721092,-0.148440502929687,8.45632026367188,5.44441457519531
4.92709556068314,-0.162805712890625,8.47068547363281,5.439626171875
4.92912856415536,-0.162805712890625,8.52335791015625,5.43483776855469
4.93116156762758,-0.177170922851562,8.48026228027344,5.35343491210937
4.93319323521655,-0.186747729492187,8.53293471679688,5.39653054199219
4.93522490280553,-0.17238251953125,8.52335791015625,5.36780012207031
4.9372565703945,-0.158017309570312,8.51856950683594,5.43004936523437
4.93932147984546,-0.181959326171875,8.48505068359375,5.42526096191406
4.94138638929641,-0.186747729492187,8.48983908691406,5.39174213867187
4.94345129874737,-0.181959326171875,8.504204296875,5.43483776855469
4.94548443118009,-0.167594116210937,8.48505068359375,5.37737692871094
4.94751756361282,-0.205901342773437,8.45153186035156,5.41089575195312
4.94955069604555,-0.181959326171875,8.4658970703125,5.43483776855469
4.95158393042054,-0.15322890625,8.45153186035156,5.439626171875
4.95361716479554,-0.17238251953125,8.48026228027344,5.42047255859375
4.95565039917054,-0.15322890625,8.44674345703125,5.40610734863281
4.95768318801602,-0.158017309570312,8.43716665039062,5.41089575195312
4.95971597686151,-0.143652099609375,8.42758984375,5.40610734863281
4.96174876570699,-0.167594116210937,8.47068547363281,5.38695373535156
4.9637812870286,-0.158017309570312,8.45153186035156,5.41568415527344
4.96581380835021,-0.148440502929687,8.47547387695312,5.36780012207031
4.96784632967183,-0.119710083007812,8.42280144042969,5.41089575195312
4.96991283064839,-0.105344873046875,8.42280144042969,5.35343491210937
4.97197933162495,-0.138863696289063,8.45153186035156,5.34864650878906
4.97404583260151,-0.100556469726563,8.48026228027344,5.37737692871094
4.97608252563536,-0.0909796630859375,8.44674345703125,5.40610734863281
4.97811921866922,-0.0814028564453125,8.44674345703125,5.40610734863281
4.98015591170308,-0.076614453125,8.47068547363281,5.44441457519531
4.98219143926384,-0.09576806640625,8.48026228027344,5.37258852539062
4.98422696682461,-0.076614453125,8.52335791015625,5.34864650878906
4.98626249438538,-0.09576806640625,8.49462749023438,5.41089575195312
4.98829757419223,-0.100556469726563,8.53293471679688,5.43004936523437
4.99033265399909,-0.09576806640625,8.48983908691406,5.38216533203125
4.99236773380595,-0.105344873046875,8.51856950683594,5.36301171875
4.99440182082851,-0.110133276367187,8.52814631347656,5.36780012207031
4.99643590785108,-0.105344873046875,8.50899270019531,5.37258852539062
4.99846999487365,-0.129286889648437,8.48026228027344,5.45877978515625
5.00053574568745,-0.119710083007812,8.49462749023438,5.34864650878906
5.00260149650125,-0.110133276367187,8.47068547363281,5.40610734863281
5.00466724731504,-0.13407529296875,8.51856950683594,5.36780012207031
5.00670035093917,-0.1149216796875,8.55687673339844,5.33906970214844
5.0087334545633,-0.143652099609375,8.52335791015625,5.32949289550781
5.01076655818743,-0.129286889648437,8.5425115234375,5.35343491210937
5.01280204402727,-0.158017309570312,8.5425115234375,5.31033928222656
5.01483752986712,-0.186747729492187,8.52335791015625,5.31033928222656
5.01687301570696,-0.162805712890625,8.5425115234375,5.31033928222656
5.0189100624192,-0.167594116210937,8.50899270019531,5.33428129882812
5.02094710913144,-0.215478149414062,8.53772312011719,5.32949289550781
5.02298415584368,-0.196324536132812,8.53772312011719,5.38695373535156
5.02502237622128,-0.215478149414062,8.52814631347656,5.33906970214844
5.02706059659889,-0.186747729492187,8.53772312011719,5.30076247558594
5.02909881697649,-0.177170922851562,8.53293471679688,5.33906970214844
5.03116125317441,-0.1915361328125,8.56166513671875,5.36780012207031
5.03322368937233,-0.167594116210937,8.55208833007812,5.35822331542969
5.03528612557025,-0.205901342773437,8.58081875,5.31512768554687
5.03731577840228,-0.186747729492187,8.54729992675781,5.30555087890625
5.03934543123432,-0.167594116210937,8.55208833007812,5.32949289550781
5.04137508406635,-0.177170922851562,8.53293471679688,5.37737692871094
5.04340219534022,-0.158017309570312,8.51856950683594,5.35822331542969
5.0454293066141,-0.186747729492187,8.54729992675781,5.34385810546875
5.04745641788797,-0.196324536132812,8.52814631347656,5.36301171875
5.04948103144049,-0.17238251953125,8.48983908691406,5.36301171875
5.05150564499301,-0.15322890625,8.50899270019531,5.34385810546875
5.05353025854552,-0.158017309570312,8.5425115234375,5.32949289550781
5.05555579071783,-0.162805712890625,8.54729992675781,5.36780012207031
5.05758132289014,-0.158017309570312,8.53293471679688,5.33906970214844
5.05960685506245,-0.15322890625,8.50899270019531,5.35343491210937
5.06166866739969,-0.148440502929687,8.56166513671875,5.3247044921875
5.06373047973693,-0.138863696289063,8.54729992675781,5.34385810546875
5.06579229207417,-0.148440502929687,8.51856950683594,5.3247044921875
5.06782562003641,-0.1149216796875,8.55208833007812,5.33906970214844
5.06985894799864,-0.105344873046875,8.57124194335938,5.34864650878906
