timestamp,accel_x (m/s2),accel_y (m/s2),accel_z (m/s2)
0.00275234738498161,0.656011254882812,8.58560715332031,5.37737692871094
0.00550469476996322,0.679953271484375,8.6191259765625,5.37258852539062
0.00825704215494483,0.675164868164063,8.6191259765625,5.34864650878906
0.013768650878904,0.646434448242187,8.57124194335938,5.29118566894531
0.0192802596028632,0.646434448242187,8.57603034667969,5.34864650878906
0.0247918683268225,0.679953271484375,8.58081875,5.39653054199219
0.0303076811523439,0.694318481445312,8.55687673339844,5.36301171875
0.0358234939778654,0.699106884765625,8.56166513671875,5.34385810546875
0.0413393068033869,0.70868369140625,8.55687673339844,5.41568415527344
0.0469226623806449,0.694318481445312,8.49462749023438,5.33428129882812
0.0525060179579029,0.718260498046875,8.52335791015625,5.37258852539062
0.0580893735351609,0.660799658203125,8.54729992675781,5.286397265625
0.0636791829969662,0.656011254882812,8.53293471679688,5.30555087890625
0.0692689924587716,0.694318481445312,8.5425115234375,5.32949289550781
0.0748588019205769,0.6512228515625,8.504204296875,5.35343491210937
0.0804530247938378,0.6512228515625,8.51856950683594,5.31512768554687
0.0860472476670987,0.608127221679687,8.53293471679688,5.29118566894531
0.0916414705403596,0.569819995117188,8.57124194335938,5.29118566894531
0.0972405999891421,0.603338818359375,8.52814631347656,5.31512768554687
0.102839729437925,0.588973608398437,8.52814631347656,5.2480900390625
0.108438858886707,0.545877978515625,8.53772312011719,5.28160886230469
0.114041794542087,0.531512768554687,8.56645354003906,5.2480900390625
0.119644730197467,0.502782348632812,8.52814631347656,5.26724365234375
0.125247665852847,0.454898315429687,8.56166513671875,5.30555087890625
0.130909499186181,0.483628735351562,8.52814631347656,5.26245524902344
0.136571332519516,0.450109912109375,8.52814631347656,5.22414802246094
0.142233165852851,0.435744702148437,8.49462749023438,5.21935961914062
0.147899908691393,0.445321508789062,8.55208833007812,5.23851323242187
0.153566651529935,0.411802685546875,8.54729992675781,5.23372482910156
0.159233394368478,0.339976635742188,8.52814631347656,5.26245524902344
0.164904596516917,0.320823022460937,8.57124194335938,5.27682045898437
0.170575798665356,0.316034619140625,8.57124194335938,5.21457121582031
0.176247000813795,0.339976635742188,8.49941589355469,5.286397265625
0.181986828938797,0.335188232421875,8.53293471679688,5.25287844238281
0.187726657063799,0.349553442382812,8.57603034667969,5.2097828125
0.1934664851888,0.335188232421875,8.59997236328125,5.30555087890625
0.199210069498697,0.311246215820312,8.59518395996094,5.22414802246094
0.204953653808595,0.301669409179687,8.6191259765625,5.21457121582031
0.210697238118492,0.272938989257812,8.61433757324219,5.27682045898437
0.216444525553387,0.258573779296875,8.59518395996094,5.24330163574219
0.222191812988283,0.335188232421875,8.67658681640625,5.20499440917969
0.227939100423178,0.296881005859375,8.61433757324219,5.27203205566406
0.233689994086374,0.296881005859375,8.657433203125,5.20020600585937
0.239440887749569,0.301669409179687,8.65264479980469,5.20020600585937
0.245191781412764,0.282515795898438,8.66222160644531,5.20020600585937
0.250944627115887,0.292092602539062,8.68137521972656,5.23851323242187
0.256697472819011,0.292092602539062,8.657433203125,5.24330163574219
0.262450318522134,0.335188232421875,8.64785639648438,5.23851323242187
0.268211707628038,0.349553442382812,8.65264479980469,5.18105239257812
0.273973096733942,0.368707055664062,8.66701000976562,5.25766684570312
0.279734485839846,0.320823022460937,8.66222160644531,5.22893642578125
0.285500348578559,0.349553442382812,8.657433203125,5.22414802246094
0.291266211317271,0.359130249023437,8.657433203125,5.27682045898437
0.297032074055984,0.368707055664062,8.65264479980469,5.26245524902344
0.302849923665361,0.378283862304687,8.63827958984375,5.22414802246094
0.308667773274737,0.416591088867187,8.63827958984375,5.26245524902344
0.314485622884114,0.397437475585937,8.6191259765625,5.22414802246094
0.320308005479601,0.392649072265625,8.6191259765625,5.31512768554687
0.326130388075088,0.411802685546875,8.63827958984375,5.20020600585937
0.331952770670576,0.4213794921875,8.67179841308594,5.21935961914062
0.337778543131513,0.430956298828125,8.62870278320312,5.23372482910156
0.343604315592451,0.44053310546875,8.65264479980469,5.27203205566406
0.349430088053388,0.416591088867187,8.59518395996094,5.24330163574219
0.355259028266059,0.416591088867187,8.67179841308594,5.30076247558594
0.36108796847873,0.45968671875,8.59518395996094,5.21935961914062
0.366916908691401,0.445321508789062,8.60954916992188,5.2097828125
0.372748228352859,0.469263525390625,8.57603034667969,5.31033928222656
0.378579548014317,0.416591088867187,8.61433757324219,5.25766684570312
0.384410867675776,0.450109912109375,8.61433757324219,5.18584079589844
0.390308518066398,0.488417138671875,8.57603034667969,5.2480900390625
0.39620616845702,0.464475122070312,8.60954916992188,5.25287844238281
0.402103818847642,0.430956298828125,8.61433757324219,5.20499440917969
0.408009635470907,0.469263525390625,8.63349118652344,5.20499440917969
0.413915452094171,0.464475122070312,8.60954916992188,5.19062919921875
0.419821268717435,0.445321508789062,8.60476076660156,5.21457121582031
0.42573122661674,0.416591088867187,8.65264479980469,5.20499440917969
0.431641184516046,0.416591088867187,8.60476076660156,5.21935961914062
0.437551142415352,0.397437475585937,8.60954916992188,5.16668718261719
0.443464150119342,0.435744702148437,8.60476076660156,5.22893642578125
0.449377157823333,0.354341845703125,8.6191259765625,5.16668718261719
0.455290165527323,0.392649072265625,8.6191259765625,5.17626398925781
0.461204749511696,0.392649072265625,8.59997236328125,5.16668718261719
0.46711933349607,0.32561142578125,8.62870278320312,5.19541760253906
0.473033917480443,0.311246215820312,8.59518395996094,5.20499440917969
0.479007909559435,0.292092602539062,8.59518395996094,5.20499440917969
0.484981901638427,0.301669409179687,8.58560715332031,5.21935961914062
0.49095589371742,0.28730419921875,8.61433757324219,5.17626398925781
0.49693619048391,0.296881005859375,8.56166513671875,5.18105239257812
0.5029164872504,0.3064578125,8.56166513671875,5.21935961914062
0.508896784016891,0.3064578125,8.52814631347656,5.17626398925781
0.514881864420538,0.28730419921875,8.54729992675781,5.20499440917969
0.520866944824185,0.253785375976562,8.55687673339844,5.16668718261719
0.526852025227832,0.2681505859375,8.5425115234375,5.18105239257812
0.532842886664461,0.28730419921875,8.56166513671875,5.20020600585937
0.538833748101091,0.282515795898438,8.53772312011719,5.18105239257812
0.54482460953772,0.258573779296875,8.57124194335938,5.2480900390625
0.550817554958724,0.282515795898438,8.56166513671875,5.14753356933594
0.556810500379728,0.277727392578125,8.56166513671875,5.20020600585937
0.562803445800732,0.316034619140625,8.56645354003906,5.19541760253906
0.568853718261667,0.28730419921875,8.55208833007812,5.15232197265625
0.574903990722601,0.277727392578125,8.52814631347656,5.14753356933594
0.580954263183536,0.253785375976562,8.53293471679688,5.16189877929687
0.587008021213049,0.28730419921875,8.52814631347656,5.17626398925781
0.593061779242563,0.272938989257812,8.55687673339844,5.133168359375
0.599115537272077,0.282515795898438,8.52335791015625,5.17626398925781
0.605171610839783,0.282515795898438,8.56645354003906,5.15711037597656
0.611227684407488,0.258573779296875,8.5425115234375,5.20499440917969
0.617283757975194,0.244208569335937,8.5425115234375,5.13795676269531
0.623343287706094,0.282515795898438,8.56645354003906,5.16668718261719
0.629402817436995,0.24899697265625,8.52335791015625,5.24330163574219
0.635462347167895,0.24899697265625,8.54729992675781,5.12837995605469
0.64152580224602,0.244208569335937,8.55687673339844,5.18105239257812
0.647589257324145,0.239420166015625,8.53772312011719,5.16189877929687
0.65365271240227,0.229843359375,8.5425115234375,5.16668718261719
0.65980247726772,0.239420166015625,8.5425115234375,5.1714755859375
0.665952242133171,0.1915361328125,8.55208833007812,5.20499440917969
0.672102006998621,0.229843359375,8.57603034667969,5.2097828125
0.678255503092371,0.21068974609375,8.60476076660156,5.20499440917969
0.684408999186121,0.215478149414062,8.63827958984375,5.22414802246094
0.69056249527987,0.162805712890625,8.62870278320312,5.20020600585937
0.696718048990806,0.15322890625,8.60476076660156,5.25766684570312
0.702873602701741,0.177170922851562,8.62870278320312,5.20499440917969
0.709029156412676,0.158017309570312,8.62391437988281,5.20499440917969
0.715187784884897,0.148440502929687,8.62391437988281,5.1714755859375
0.721346413357118,0.124498486328125,8.62870278320312,5.21457121582031
0.727505041829339,0.119710083007812,8.66701000976562,5.18105239257812
0.733665307562847,0.124498486328125,8.62870278320312,5.21935961914062
0.739825573296355,0.119710083007812,8.60954916992188,5.1714755859375
0.745985839029863,0.076614453125,8.62391437988281,5.11880314941406
0.752192444173093,0.0143652099609375,8.57124194335938,5.14274516601562
0.758399049316322,0.0622492431640625,8.58560715332031,5.1714755859375
0.764605654459551,0.047884033203125,8.60476076660156,5.2097828125
0.770814097601911,0.028730419921875,8.55687673339844,5.14753356933594
0.777022540744272,-0.047884033203125,8.55687673339844,5.10443793945312
0.783230983886632,-0.0526724365234375,8.54729992675781,5.0948611328125
0.789517214789411,-0.0909796630859375,8.54729992675781,5.07091911621094
0.795803445692189,-0.124498486328125,8.55687673339844,5.09007272949219
0.802089676594967,-0.1149216796875,8.55687673339844,5.133168359375
0.808378745171356,-0.186747729492187,8.57603034667969,5.16668718261719
0.814667813747744,-0.1915361328125,8.51856950683594,5.10443793945312
0.820956882324133,-0.186747729492187,8.52814631347656,5.05655390625
0.827248458713022,-0.253785375976562,8.54729992675781,5.10922634277344
0.833540035101912,-0.239420166015625,8.5425115234375,5.04697709960938
0.839831611490801,-0.2681505859375,8.56645354003906,5.06134230957031
0.846125137423961,-0.296881005859375,8.56166513671875,5.10443793945312
0.85241866335712,-0.383072265625,8.53293471679688,5.04697709960938
0.85871218929028,-0.40222587890625,8.57603034667969,5.02782348632813
0.865007637532469,-0.407014282226562,8.58560715332031,5.0182466796875
0.871303085774658,-0.44053310546875,8.59518395996094,4.99430466308594
0.877598534016848,-0.47884033203125,8.62870278320312,5.02303508300781
0.883895827962161,-0.45968671875,8.64306799316406,4.99430466308594
0.890193121907475,-0.469263525390625,8.72925925292969,4.98951625976563
0.896490415852789,-0.44053310546875,8.69095202636719,5.08049592285156
0.902789508300707,-0.411802685546875,8.68137521972656,5.15232197265625
0.909088600748625,-0.407014282226562,8.79629689941406,5.06134230957031
0.915387693196543,-0.44053310546875,8.78672009277344,5.06134230957031
0.924917938991896,-0.47884033203125,8.8489693359375,5.08528432617187
0.93444818478725,-0.411802685546875,8.86812294921875,5.04218869628906
0.943978430582604,-0.40222587890625,8.86333454589844,5.12359155273437
0.950350325005346,-0.368707055664062,8.86333454589844,4.979939453125
0.956722219428087,-0.36391865234375,8.86333454589844,5.04697709960938
0.963094113850829,-0.339976635742188,8.85854614257812,5.05655390625
0.969468399224094,-0.335188232421875,8.85854614257812,5.04218869628906
0.975842684597358,-0.301669409179687,8.83939252929687,5.00866987304688
0.982216969970622,-0.2681505859375,8.84418093261719,5.04218869628906
0.98859319045673,-0.320823022460937,8.87291135253906,4.96557424316406
0.994969410942839,-0.3064578125,8.84418093261719,5.09007272949219
1.00134563142895,-0.215478149414062,8.80108530273437,5.04697709960938
1.00772370456263,-0.105344873046875,8.75320126953125,5.06613071289062
1.01410177769631,-0.110133276367187,8.72447084960938,5.07091911621094
1.02047985082999,-0.047884033203125,8.6957404296875,5.10443793945312
1.02692117049144,-0.0239420166015625,8.66222160644531,5.08528432617187
1.0333624901529,-0.01915361328125,8.62391437988281,5.03261188964844
1.03980380981436,0.0430956298828125,8.52335791015625,4.979939453125
1.04625062220585,0.0909796630859375,8.52335791015625,4.94642062988281
1.05269743459734,0.17238251953125,8.4658970703125,5.00388146972656
1.05914424698884,0.229843359375,8.41801303710938,5.01345827636719
1.06559620304352,0.320823022460937,8.36055219726562,5.04218869628906
1.07204815909821,0.3447650390625,8.30787976074219,5.01345827636719
1.07850011515289,0.387860668945312,8.25041892089844,5.07091911621094
1.0849577465548,0.454898315429687,8.24563051757812,5.05655390625
1.09141537795671,0.45968671875,8.25999572753906,5.08049592285156
1.09787300935862,0.4979939453125,8.22168850097656,4.97036264648438
1.1043330261772,0.55545478515625,8.25041892089844,5.02303508300781
1.11079304299577,0.608127221679687,8.25999572753906,5.03740029296875
1.11725305981435,0.627280834960937,8.28393774414062,5.0182466796875
1.12377255862077,0.70868369140625,8.32224497070312,5.0182466796875
1.13029205742719,0.723048901367187,8.40364782714844,4.97515104980469
1.13681155623361,0.732625708007812,8.47068547363281,5.0182466796875
1.14333544175878,0.742202514648437,8.48983908691406,5.01345827636719
1.14985932728396,0.756567724609375,8.55687673339844,5.05176550292969
1.15638321280913,0.74699091796875,8.64785639648438,5.04218869628906
1.16290940432389,0.713472094726562,8.71010563964844,5.06134230957031
1.16943559583864,0.679953271484375,8.78193168945312,5.09964953613281
1.1759617873534,0.694318481445312,8.86333454589844,5.14753356933594
1.18248984757475,0.67037646484375,8.87769975585937,5.16668718261719
1.1890179077961,0.63206923828125,8.8872765625,5.16189877929687
1.19554596801746,0.646434448242187,8.95910261230469,5.19541760253906
1.20207826424141,0.622492431640625,9.0021982421875,5.2097828125
1.20861056046537,0.608127221679687,9.05008227539062,5.16189877929687
1.21514285668933,0.617704028320312,9.07402429199219,5.1714755859375
1.22174114911554,0.584185205078125,9.10275471191406,5.19062919921875
1.22833944154175,0.545877978515625,9.14585034179687,5.20020600585937
1.23493773396797,0.565031591796875,9.10275471191406,5.14753356933594
1.24153872604696,0.531512768554687,9.11233151855469,5.19062919921875
1.24813971812595,0.531512768554687,9.17458076171875,5.2097828125
1.25474071020494,0.483628735351562,9.17458076171875,5.14274516601562
1.26134361124661,0.541089575195312,9.17458076171875,5.10922634277344
1.26794651228827,0.51714755859375,9.16979235839844,5.12359155273437
1.27454941332994,0.541089575195312,9.16021555175781,5.07570751953125
1.28115416777872,0.51714755859375,9.14106193847656,5.11401474609375
1.2877589222275,0.493205541992187,9.08838950195312,5.03261188964844
1.29436367667628,0.541089575195312,9.07402429199219,5.03740029296875
1.30104059941934,0.521935961914062,9.02614025878906,5.04218869628906
1.30771752216239,0.541089575195312,8.98304462890625,5.04697709960938
1.31439444490545,0.512359155273437,8.94952580566406,5.04697709960938
1.32107430916326,0.512359155273437,8.89206496582031,5.07091911621094
1.32775417342107,0.464475122070312,8.82502731933594,5.04697709960938
1.33443403767888,0.411802685546875,8.76277807617187,5.00388146972656
1.34111585799137,0.426167895507812,8.76756647949219,5.09964953613281
1.34779767830387,0.454898315429687,8.66222160644531,5.08049592285156
1.35447949861637,0.411802685546875,8.61433757324219,5.13795676269531
1.36116345011376,0.392649072265625,8.58560715332031,5.12359155273437
1.36784740161116,0.383072265625,8.52814631347656,5.10443793945312
1.37453135310855,0.3064578125,8.46110866699219,5.15711037597656
1.38121718839501,0.383072265625,8.3892826171875,5.13795676269531
1.38790302368146,0.282515795898438,8.38449421386719,5.19541760253906
1.39458885896792,0.296881005859375,8.36055219726562,5.27682045898437
1.40127650273962,0.311246215820312,8.36055219726562,5.24330163574219
1.40796414651132,0.311246215820312,8.32703337402344,5.23372482910156
1.41465179028302,0.28730419921875,8.32703337402344,5.23851323242187
1.42140697051305,0.316034619140625,8.31745656738281,5.21457121582031
1.42816215074309,0.272938989257812,8.3126681640625,5.22414802246094
1.43491733097312,0.32561142578125,8.3892826171875,5.28160886230469
1.4416794947101,0.335188232421875,8.37970581054688,5.31033928222656
1.44844165844708,0.378283862304687,8.41322463378906,5.28160886230469
1.45520382218406,0.335188232421875,8.48505068359375,5.26245524902344
1.46196867548267,0.411802685546875,8.52814631347656,5.34864650878906
1.46873352878128,0.392649072265625,8.55687673339844,5.18584079589844
1.47549838207989,0.40222587890625,8.56166513671875,5.30076247558594
1.48226533965367,0.407014282226562,8.61433757324219,5.22893642578125
1.48903229722746,0.45968671875,8.65264479980469,5.27682045898437
1.49579925480124,0.502782348632812,8.68616362304688,5.2480900390625
1.50256811265714,0.536301171875,8.71968244628906,5.22893642578125
1.50933697051305,0.531512768554687,8.68137521972656,5.18105239257812
1.51610582836895,0.541089575195312,8.76277807617187,5.23372482910156
1.52293854527433,0.541089575195312,8.73404765625,5.2097828125
1.52977126217972,0.536301171875,8.78193168945312,5.23372482910156
1.5366039790851,0.608127221679687,8.80587370605469,5.19541760253906
1.54344212589499,0.617704028320312,8.80108530273437,5.22893642578125
1.55028027270489,0.622492431640625,8.80587370605469,5.2097828125
1.55711841951478,0.603338818359375,8.82023891601562,5.22893642578125
1.56395894447138,0.579396801757812,8.78672009277344,5.20020600585937
1.57079946942797,0.6512228515625,8.8489693359375,5.15711037597656
1.57763999438457,0.617704028320312,8.82981572265625,5.19062919921875
1.58448594761808,0.646434448242187,8.79629689941406,5.15711037597656
1.59133190085159,0.63206923828125,8.82023891601562,5.21935961914062
1.59817785408509,0.679953271484375,8.85375773925781,5.22893642578125
1.60502715432381,0.675164868164063,8.81545051269531,5.31033928222656
1.61187645456252,0.703895288085937,8.82023891601562,5.25287844238281
1.61872575480123,0.689530078125,8.8489693359375,5.20020600585937
1.62563734063023,0.703895288085937,8.80587370605469,5.27682045898437
1.63254892645922,0.732625708007812,8.83939252929687,5.23851323242187
1.63946051228821,0.737414111328125,8.84418093261719,5.29597407226562
1.64637794544793,0.699106884765625,8.81545051269531,5.26724365234375
1.65329537860766,0.70868369140625,8.82981572265625,5.25287844238281
1.66021281176738,0.713472094726562,8.72925925292969,5.25766684570312
1.66714528974047,0.679953271484375,8.74841286621094,5.30555087890625
1.67407776771356,0.689530078125,8.69095202636719,5.29597407226562
1.68101024568665,0.694318481445312,8.71489404296875,5.31033928222656
1.68794896031339,0.679953271484375,8.66222160644531,5.26245524902344
1.69488767494012,0.656011254882812,8.63349118652344,5.24330163574219
1.70182638956686,0.6512228515625,8.6191259765625,5.23851323242187
1.70881493579082,0.612915625,8.56645354003906,5.20499440917969
1.71580348201477,0.675164868164063,8.56645354003906,5.27203205566406
1.72279202823873,0.689530078125,8.54729992675781,5.2097828125
1.72985940388977,0.703895288085937,8.55208833007812,5.25287844238281
1.73692677954081,0.694318481445312,8.5425115234375,5.27203205566406
1.74399415519186,0.684741674804688,8.52335791015625,5.25766684570312
1.75106434887675,0.70868369140625,8.52335791015625,5.20020600585937
1.75813454256165,0.684741674804688,8.49941589355469,5.22414802246094
1.76520473624655,0.67037646484375,8.52814631347656,5.25766684570312
1.77227685180644,0.70868369140625,8.5425115234375,5.23372482910156
1.77934896736633,0.67037646484375,8.51378110351562,5.26245524902344
1.78642108292622,0.646434448242187,8.50899270019531,5.2480900390625
1.79349501434983,0.636857641601562,8.48505068359375,5.20020600585937
1.80056894577344,0.584185205078125,8.48983908691406,5.23851323242187
1.80764287719705,0.6512228515625,8.45632026367188,5.22893642578125
1.81486597626389,0.622492431640625,8.53293471679688,5.2097828125
1.82208907533073,0.660799658203125,8.57124194335938,5.23851323242187
1.82931217439757,0.646434448242187,8.53772312011719,5.17626398925781
1.83655708477084,0.617704028320312,8.59518395996094,5.11880314941406
1.8438019951441,0.627280834960937,8.59518395996094,5.16189877929687
1.85104690551736,0.565031591796875,8.67179841308594,5.14274516601562
1.85834788197135,0.603338818359375,8.64306799316406,5.07570751953125
1.86564885842535,0.603338818359375,8.66222160644531,5.14274516601562
1.87294983487934,0.584185205078125,8.66222160644531,5.18105239257812
1.89133952796744,0.454898315429687,8.64785639648438,5.21935961914062
1.90972922105554,0.450109912109375,8.62870278320312,5.12359155273437
1.92811891414364,0.416591088867187,8.63349118652344,5.12837995605469
1.93550140426951,0.411802685546875,8.64306799316406,5.16189877929687
1.94288389439538,0.4213794921875,8.61433757324219,5.14753356933594
1.95026638452125,0.397437475585937,8.59997236328125,5.14753356933594
1.95765077503774,0.411802685546875,8.59518395996094,5.18105239257812
1.96503516555423,0.416591088867187,8.57124194335938,5.15232197265625
1.97241955607072,0.4213794921875,8.62391437988281,5.10443793945312
1.97980581073652,0.40222587890625,8.60476076660156,5.19541760253906
1.98719206540232,0.392649072265625,8.60476076660156,5.14274516601562
1.99457832006812,0.36391865234375,8.68616362304688,5.1714755859375
2.02429975122046,0.296881005859375,8.84418093261719,5.16189877929687
2.0540211823728,0.387860668945312,8.82981572265625,5.16189877929687
2.08374261352514,0.3447650390625,8.82981572265625,5.08528432617187
2.10611956165881,0.507570751953125,8.5425115234375,5.13795676269531
2.12849650979248,0.531512768554687,8.48983908691406,5.0948611328125
2.15087345792616,0.569819995117188,8.48026228027344,5.12359155273437
2.17325823526991,0.790086547851562,8.32703337402344,5.23372482910156
2.19564301261366,0.842758984375,8.33661018066406,5.23851323242187
2.21802778995741,0.852335791015625,8.37012900390625,5.21935961914062
2.22549242624213,0.866701000976562,8.37970581054688,5.22414802246094
2.23295706252685,0.814028564453125,8.39885942382812,5.17626398925781
2.24042169881158,0.90021982421875,8.43716665039062,5.2097828125
2.2478882070581,0.909796630859375,8.48026228027344,5.25287844238281
2.25535471530463,0.933738647460937,8.504204296875,5.20020600585937
2.26282122355116,0.928950244140625,8.504204296875,5.15711037597656
2.27028953681071,0.914585034179687,8.49462749023438,5.14274516601562
2.27775785007025,0.943315454101562,8.57124194335938,5.15711037597656
2.2852261633298,0.914585034179687,8.63349118652344,5.19541760253906
2.29652534898518,0.943315454101562,8.66701000976562,5.10443793945312
2.30782453464056,0.928950244140625,8.72925925292969,5.11880314941406
2.31912372029594,0.943315454101562,8.69095202636719,5.1714755859375
2.3266739914548,0.924161840820312,8.657433203125,5.16189877929687
2.33422426261365,0.9193734375,8.66701000976562,5.16668718261719
2.3417745337725,0.905008227539062,8.69095202636719,5.13795676269531
2.34932892157632,0.9193734375,8.71010563964844,5.18105239257812
2.35688330938014,0.909796630859375,8.63349118652344,5.23851323242187
2.36443769718396,0.909796630859375,8.66222160644531,5.2097828125
2.37199567526555,0.90021982421875,8.62391437988281,5.19062919921875
2.37955365334715,0.90021982421875,8.64785639648438,5.18584079589844
2.38711163142875,0.876277807617187,8.64785639648438,5.18105239257812
2.39467306871174,0.885854614257812,8.67658681640625,5.18584079589844
2.40223450599472,0.885854614257812,8.68137521972656,5.14274516601562
2.40979594327771,0.885854614257812,8.67179841308594,5.14274516601562
2.41741023754854,0.8810662109375,8.70531723632812,5.20499440917969
2.42502453181938,0.876277807617187,8.71010563964844,5.19541760253906
2.43263882609021,0.847547387695312,8.72925925292969,5.21457121582031
2.44027208585583,0.86191259765625,8.70531723632812,5.23851323242187
2.44790534562146,0.876277807617187,8.70531723632812,5.15711037597656
2.45553860538709,0.82360537109375,8.68616362304688,5.18584079589844
2.46317641745306,0.828393774414062,8.67179841308594,5.21457121582031
2.47081422951903,0.8044517578125,8.68616362304688,5.19541760253906
2.478452041585,0.833182177734375,8.71968244628906,5.25287844238281
2.48609337687145,0.871489404296875,8.72925925292969,5.20499440917969
2.49373471215791,0.8810662109375,8.67658681640625,5.15232197265625
2.50137604744436,0.876277807617187,8.71010563964844,5.18105239257812
2.50902111569523,0.866701000976562,8.70052883300781,5.20499440917969
2.5166661839461,0.866701000976562,8.68137521972656,5.22414802246094
2.52431125219696,0.90021982421875,8.62870278320312,5.23851323242187
2.52649504934323,0.871489404296875,8.64306799316406,5.22414802246094
2.5286788464895,0.8810662109375,8.60954916992188,5.21935961914062
2.53086264363577,0.833182177734375,8.59997236328125,5.22414802246094
2.53304498971867,0.852335791015625,8.56166513671875,5.25287844238281
2.53522733580157,0.852335791015625,8.49941589355469,5.2480900390625
2.53740968188447,0.885854614257812,8.50899270019531,5.26245524902344
2.53955817971433,0.857124194335937,8.45153186035156,5.2097828125
2.54170667754419,0.8810662109375,8.42280144042969,5.26724365234375
2.54385517537404,0.857124194335937,8.38449421386719,5.2097828125
2.54596851559757,0.86191259765625,8.34139858398438,5.23851323242187
2.54808185582109,0.809240161132812,8.32703337402344,5.23851323242187
2.55019519604461,0.833182177734375,8.33182177734375,5.29597407226562
2.55230492000294,0.837970581054687,8.27914934082031,5.19062919921875
2.55441464396128,0.837970581054687,8.26957253417969,5.22893642578125
2.55652436791961,0.842758984375,8.25999572753906,5.23372482910156
2.55869887882456,0.837970581054687,8.25041892089844,5.21935961914062
2.56087338972951,0.857124194335937,8.28872614746094,5.21457121582031
2.56304790063446,0.852335791015625,8.3126681640625,5.21457121582031
2.56522437014401,0.876277807617187,8.30787976074219,5.2480900390625
2.56740083965356,0.857124194335937,8.2743609375,5.30555087890625
2.56957730916311,0.890643017578125,8.27914934082031,5.2097828125
2.57172434046736,0.890643017578125,8.29351455078125,5.23851323242187
2.57387137177162,0.924161840820312,8.27914934082031,5.30555087890625
2.57601840307587,0.928950244140625,8.32224497070312,5.27203205566406
2.57813889775903,0.962469067382812,8.34618698730469,5.2480900390625
2.58025939244219,0.933738647460937,8.34139858398438,5.30076247558594
2.58237988712535,0.986411083984375,8.37012900390625,5.25287844238281
2.5845113669973,0.967257470703125,8.37491740722656,5.27203205566406
2.58664284686926,0.97683427734375,8.37491740722656,5.31991608886719
2.58877432674122,0.952892260742187,8.42758984375,5.26245524902344
2.59091785088401,1.00556469726562,8.42280144042969,5.26724365234375
2.5930613750268,0.967257470703125,8.43237824707031,5.286397265625
2.59520489916959,0.933738647460937,8.45632026367188,5.2480900390625
2.59731563349033,0.933738647460937,8.47547387695312,5.19541760253906
2.59942636781108,0.948103857421875,8.48983908691406,5.25766684570312
2.60153710213182,0.952892260742187,8.46110866699219,5.2480900390625
2.60364632326897,0.9576806640625,8.44674345703125,5.22414802246094
2.60575554440613,0.924161840820312,8.504204296875,5.2097828125
2.60786476554328,0.871489404296875,8.50899270019531,5.2097828125
2.609972210476,0.90021982421875,8.52335791015625,5.18584079589844
2.61207965540873,0.8810662109375,8.53772312011719,5.19062919921875
2.61418710034145,0.885854614257812,8.52814631347656,5.18105239257812
2.61629357571037,0.885854614257812,8.56645354003906,5.12837995605469
2.61840005107929,0.809240161132812,8.59518395996094,5.15232197265625
2.62050652644821,0.828393774414062,8.57603034667969,5.18105239257812
2.62267520548467,0.799663354492188,8.58560715332031,5.17626398925781
2.62484388452113,0.780509741210937,8.56645354003906,5.20499440917969
2.62701256355759,0.76614453125,8.57603034667969,5.15232197265625
2.62925302118563,0.809240161132812,8.60476076660156,5.13795676269531
2.63149347881367,0.74699091796875,8.62391437988281,5.19062919921875
2.6337339364417,0.78529814453125,8.58560715332031,5.19541760253906
2.63595105357495,0.694318481445312,8.57603034667969,5.19062919921875
2.63816817070819,0.713472094726562,8.59518395996094,5.22414802246094
2.64038528784144,0.732625708007812,8.62391437988281,5.15711037597656
2.64257950279369,0.70868369140625,8.58560715332031,5.14274516601562
2.64477371774595,0.694318481445312,8.66701000976562,5.15232197265625
2.6469679326982,0.694318481445312,8.6191259765625,5.22414802246094
2.64916277856408,0.6512228515625,8.62870278320312,5.15232197265625
2.65135762442996,0.665588061523437,8.657433203125,5.17626398925781
2.65355247029585,0.67037646484375,8.64785639648438,5.10443793945312
2.65574722224897,0.641646044921875,8.66222160644531,5.17626398925781
2.6579419742021,0.617704028320312,8.66701000976562,5.15711037597656
2.66013672615523,0.541089575195312,8.70052883300781,5.17626398925781
2.66233103849247,0.598550415039062,8.71010563964844,5.16189877929687
2.66452535082971,0.584185205078125,8.71010563964844,5.14753356933594
2.66671966316695,0.5746083984375,8.70531723632812,5.13795676269531
2.67217164876265,0.454898315429687,8.59518395996094,5.08528432617187
2.67762363435836,0.454898315429687,8.55687673339844,5.09964953613281
2.68307561995406,0.4979939453125,8.48026228027344,5.09964953613281
2.68525755083513,0.469263525390625,8.52814631347656,5.0948611328125
2.68743948171621,0.4979939453125,8.49941589355469,5.08528432617187
2.68962141259728,0.45968671875,8.48505068359375,5.11401474609375
2.69181842778826,0.464475122070312,8.40843623046875,5.12837995605469
2.69401544297923,0.507570751953125,8.49941589355469,5.12837995605469
2.6962124581702,0.526724365234375,8.42758984375,5.11880314941406
2.69841167084381,0.550666381835937,8.45153186035156,5.10922634277344
2.70061088351743,0.550666381835937,8.47547387695312,5.16668718261719
2.70281009619104,0.507570751953125,8.50899270019531,5.15232197265625
2.70495340576135,0.512359155273437,8.51378110351562,5.10922634277344
2.70709671533167,0.526724365234375,8.49941589355469,5.11880314941406
2.70924002490198,0.550666381835937,8.52335791015625,5.10443793945312
2.7114202516815,0.565031591796875,8.52335791015625,5.15711037597656
2.71360047846101,0.545877978515625,8.53293471679688,5.22414802246094
2.71578070524053,0.545877978515625,8.5425115234375,5.09007272949219
2.71795901741501,0.541089575195312,8.56645354003906,5.10443793945312
2.72013732958948,0.51714755859375,8.56166513671875,5.15232197265625
2.72231564176396,0.584185205078125,8.6191259765625,5.14753356933594
2.72449041075268,0.5746083984375,8.59518395996094,5.14753356933594
2.7266651797414,0.55545478515625,8.57603034667969,5.18105239257812
2.72883994873012,0.612915625,8.66701000976562,5.15232197265625
2.73101453976745,0.59376201171875,8.66701000976562,5.133168359375
2.73318913080477,0.63206923828125,8.70531723632812,5.15232197265625
2.7353637218421,0.603338818359375,8.63827958984375,5.14753356933594
2.73748282004088,0.627280834960937,8.63349118652344,5.18584079589844
2.73960191823967,0.617704028320312,8.71010563964844,5.08528432617187
2.74172101643845,0.603338818359375,8.71010563964844,5.16668718261719
2.74390701915113,0.617704028320312,8.72447084960938,5.15232197265625
2.7460930218638,0.560243188476563,8.6957404296875,5.15232197265625
2.74827902457647,0.617704028320312,8.73883605957031,5.11880314941406
2.75046539675529,0.6512228515625,8.71010563964844,5.16189877929687
2.75265176893411,0.6512228515625,8.69095202636719,5.16189877929687
2.75483814111293,0.641646044921875,8.66701000976562,5.16189877929687
2.75702310921189,0.612915625,8.66222160644531,5.17626398925781
2.75920807731085,0.579396801757812,8.63349118652344,5.18105239257812
2.76139304540981,0.588973608398437,8.6191259765625,5.20020600585937
2.76357597705043,0.641646044921875,8.6191259765625,5.22414802246094
2.76575890869106,0.5746083984375,8.60476076660156,5.18105239257812
2.76794184033168,0.612915625,8.64785639648438,5.20020600585937
2.77004028347404,0.608127221679687,8.58560715332031,5.17626398925781
2.77213872661641,0.569819995117188,8.59997236328125,5.15711037597656
2.77423716975877,0.5746083984375,8.60476076660156,5.17626398925781
2.77640129226311,0.550666381835937,8.58081875,5.23851323242187
2.77856541476745,0.584185205078125,8.59518395996094,5.2097828125
2.78072953727179,0.612915625,8.64785639648438,5.12837995605469
2.78289802869974,0.608127221679687,8.6191259765625,5.0948611328125
2.78506652012769,0.5746083984375,8.63349118652344,5.19541760253906
2.78723501155564,0.5746083984375,8.62870278320312,5.15232197265625
2.78940345817023,0.545877978515625,8.63349118652344,5.13795676269531
2.79157190478481,0.603338818359375,8.65264479980469,5.16189877929687
2.7937403513994,0.588973608398437,8.66222160644531,5.15711037597656
2.79590919710252,0.55545478515625,8.65264479980469,5.20020600585937
2.79807804280565,0.598550415039062,8.657433203125,5.12837995605469
2.80024688850877,0.550666381835937,8.67179841308594,5.18584079589844
2.80237165250617,0.569819995117188,8.65264479980469,5.13795676269531
2.80449641650357,0.545877978515625,8.65264479980469,5.15711037597656
2.80662118050096,0.526724365234375,8.63349118652344,5.15232197265625
2.80880764588724,0.560243188476563,8.64306799316406,5.16668718261719
2.81099411127353,0.569819995117188,8.657433203125,5.15711037597656
2.81318057665981,0.59376201171875,8.62870278320312,5.19062919921875
2.81529293397318,0.565031591796875,8.64306799316406,5.15711037597656
2.81740529128654,0.59376201171875,8.60954916992188,5.18105239257812
2.81951764859991,0.598550415039062,8.62391437988281,5.16668718261719
2.82177989176397,0.541089575195312,8.56166513671875,5.1714755859375
2.82404213492803,0.569819995117188,8.57603034667969,5.17626398925781
2.8263043780921,0.584185205078125,8.62391437988281,5.21457121582031
2.82856684261033,0.526724365234375,8.6191259765625,5.18584079589844
2.83082930712856,0.55545478515625,8.58081875,5.20020600585937
2.83309177164679,0.569819995117188,8.51856950683594,5.22893642578125
2.83535440511033,0.59376201171875,8.55208833007812,5.18584079589844
2.83761703857387,0.608127221679687,8.55208833007812,5.2097828125
2.83987967203741,0.627280834960937,8.50899270019531,5.22414802246094
2.84214235237595,0.603338818359375,8.48983908691406,5.23372482910156
2.84440503271449,0.603338818359375,8.49462749023438,5.28160886230469
2.84666771305303,0.622492431640625,8.48505068359375,5.25287844238281
2.84893048182473,0.612915625,8.49462749023438,5.14753356933594
2.85119325059643,0.531512768554687,8.45153186035156,5.23851323242187
2.85345601936813,0.579396801757812,8.48026228027344,5.22893642578125
2.85571933696796,0.545877978515625,8.42280144042969,5.22414802246094
2.85798265456778,0.598550415039062,8.43716665039062,5.1714755859375
2.86024597216761,0.584185205078125,8.40843623046875,5.18584079589844
2.86252798575811,0.541089575195312,8.44195505371094,5.21935961914062
2.86480999934861,0.612915625,8.41801303710938,5.20020600585937
2.8670920129391,0.584185205078125,8.40843623046875,5.19062919921875
2.87612650029805,0.646434448242187,8.51856950683594,5.28160886230469
2.885160987657,0.627280834960937,8.504204296875,5.21935961914062
2.89419547501596,0.679953271484375,8.52814631347656,5.25287844238281
2.89642104565398,0.675164868164063,8.51378110351562,5.31991608886719
2.898646616292,0.6512228515625,8.60476076660156,5.23372482910156
2.90087218693002,0.622492431640625,8.61433757324219,5.30076247558594
2.90306550870737,0.63206923828125,8.56166513671875,5.27682045898437
2.90525883048471,0.636857641601562,8.58560715332031,5.2097828125
2.90745215226206,0.6512228515625,8.59518395996094,5.30076247558594
2.90964198592092,0.660799658203125,8.6191259765625,5.26724365234375
2.91183181957977,0.694318481445312,8.59997236328125,5.3247044921875
2.91402165323863,0.675164868164063,8.58081875,5.25287844238281
2.91620788153724,0.641646044921875,8.56166513671875,5.27203205566406
2.91839410983585,0.646434448242187,8.59518395996094,5.29118566894531
2.92058033813446,0.646434448242187,8.57124194335938,5.21457121582031
2.92283941658498,0.660799658203125,8.55208833007812,5.2097828125
2.92509849503549,0.6512228515625,8.61433757324219,5.24330163574219
2.92735757348601,0.617704028320312,8.57124194335938,5.11401474609375
2.92959041571692,0.6512228515625,8.55208833007812,5.23372482910156
2.93182325794782,0.63206923828125,8.55208833007812,5.2480900390625
2.93405610017873,0.63206923828125,8.51856950683594,5.25766684570312
2.93632061471866,0.627280834960937,8.56645354003906,5.25766684570312
2.93858512925859,0.627280834960937,8.59518395996094,5.27682045898437
2.94084964379851,0.627280834960937,8.56166513671875,5.22893642578125
2.94313222474469,0.636857641601562,8.5425115234375,5.21457121582031
2.94541480569087,0.6512228515625,8.53293471679688,5.22414802246094
2.94769738663705,0.636857641601562,8.53772312011719,5.2097828125
2.94998162730546,0.63206923828125,8.53293471679688,5.19541760253906
2.95226586797386,0.627280834960937,8.53293471679688,5.2097828125
2.95455010864227,0.550666381835937,8.53293471679688,5.15711037597656
2.95683528849253,0.588973608398437,8.55208833007812,5.19541760253906
2.95912046834279,0.660799658203125,8.54729992675781,5.19541760253906
2.96140564819306,0.660799658203125,8.53293471679688,5.18105239257812
2.96365995814315,0.641646044921875,8.49941589355469,5.20020600585937
2.96591426809324,0.656011254882812,8.55208833007812,5.15711037597656
2.96816857804333,0.636857641601562,8.58560715332031,5.18105239257812
2.97039311265704,0.608127221679687,8.55208833007812,5.19062919921875
2.97261764727075,0.603338818359375,8.56166513671875,5.12837995605469
2.97484218188447,0.598550415039062,8.58560715332031,5.13795676269531
2.97706794083629,0.641646044921875,8.52814631347656,5.21935961914062
2.97929369978812,0.565031591796875,8.60476076660156,5.1714755859375
2.98151945873994,0.588973608398437,8.58560715332031,5.14274516601562
2.98490004112384,0.588973608398437,8.65264479980469,5.21935961914062
2.98828062350774,0.550666381835937,8.68616362304688,5.10922634277344
2.99166120589164,0.579396801757812,8.65264479980469,5.15711037597656
2.99385147943765,0.550666381835937,8.67658681640625,5.12359155273437
2.99604175298365,0.603338818359375,8.69095202636719,5.16189877929687
2.99823202652966,0.545877978515625,8.69095202636719,5.16189877929687
3.0004215787215,0.545877978515625,8.71968244628906,5.15711037597656
3.00261113091334,0.5746083984375,8.69095202636719,5.26724365234375
3.00480068310518,0.526724365234375,8.65264479980469,5.14753356933594
3.00699025569633,0.531512768554687,8.72447084960938,5.20499440917969
3.00917982828747,0.550666381835937,8.68616362304688,5.24330163574219
3.01136940087862,0.512359155273437,8.72447084960938,5.19541760253906
3.01355866758869,0.512359155273437,8.71968244628906,5.18584079589844
3.01574793429876,0.531512768554687,8.73883605957031,5.23851323242187
3.01793720100883,0.4979939453125,8.73883605957031,5.22893642578125
3.02019452587862,0.493205541992187,8.74362446289062,5.2480900390625
3.02245185074842,0.4979939453125,8.72925925292969,5.2480900390625
3.02470917561821,0.493205541992187,8.72925925292969,5.24330163574219
3.02697099647324,0.474051928710937,8.75798967285156,5.22893642578125
3.02923281732828,0.493205541992187,8.73883605957031,5.24330163574219
3.03149463818331,0.474051928710937,8.75798967285156,5.27682045898437
3.03369424365207,0.493205541992187,8.72447084960938,5.27682045898437
3.03589384912082,0.454898315429687,8.74841286621094,5.27682045898437
3.03809345458957,0.474051928710937,8.72447084960938,5.23372482910156
3.04028960563123,0.454898315429687,8.77714328613281,5.28160886230469
3.04248575667289,0.435744702148437,8.71010563964844,5.22414802246094
3.04468190771456,0.45968671875,8.76756647949219,5.29118566894531
3.04689328716334,0.45968671875,8.75798967285156,5.21935961914062
3.04910466661213,0.426167895507812,8.76277807617187,5.25766684570312
3.05131604606091,0.45968671875,8.77714328613281,5.28160886230469
3.05364802761473,0.40222587890625,8.79629689941406,5.25766684570312
3.05598000916855,0.416591088867187,8.73404765625,5.34864650878906
3.05831199072237,0.426167895507812,8.75798967285156,5.25287844238281
3.06064920133435,0.426167895507812,8.77714328613281,5.22893642578125
3.06298641194633,0.47884033203125,8.77714328613281,5.29597407226562
3.06532362255831,0.450109912109375,8.78672009277344,5.23372482910156
3.06759914946802,0.464475122070312,8.76277807617187,5.24330163574219
3.06987467637774,0.445321508789062,8.810662109375,5.27682045898437
3.07215020328746,0.416591088867187,8.81545051269531,5.18584079589844
3.07442234423798,0.435744702148437,8.78672009277344,5.26245524902344
3.07669448518851,0.383072265625,8.76756647949219,5.22893642578125
3.07896662613903,0.387860668945312,8.80108530273437,5.19062919921875
3.08123925764945,0.383072265625,8.74841286621094,5.20499440917969
3.08351188915987,0.392649072265625,8.78672009277344,5.26724365234375
3.08578452067028,0.368707055664062,8.77714328613281,5.2097828125
3.08805393939858,0.359130249023437,8.73883605957031,5.22893642578125
3.09032335812687,0.301669409179687,8.78193168945312,5.25287844238281
3.09259277685517,0.349553442382812,8.79150849609375,5.21935961914062
3.09938009890378,0.258573779296875,8.67179841308594,5.1714755859375
3.10616742095239,0.21068974609375,8.63349118652344,5.19541760253906
3.11295474300099,0.234631762695312,8.63349118652344,5.21935961914062
3.1151993165687,0.258573779296875,8.60476076660156,5.22414802246094
3.11744389013641,0.258573779296875,8.63349118652344,5.17626398925781
3.11968846370412,0.272938989257812,8.58560715332031,5.23372482910156
3.12192990738901,0.263362182617187,8.62870278320312,5.2480900390625
3.12417135107391,0.220266552734375,8.58081875,5.2480900390625
3.1264127947588,0.253785375976562,8.62391437988281,5.286397265625
3.12860971283606,0.301669409179687,8.60954916992188,5.25287844238281
3.13080663091332,0.277727392578125,8.62870278320312,5.32949289550781
3.13300354899058,0.277727392578125,8.63349118652344,5.27682045898437
3.13512336279267,0.272938989257812,8.657433203125,5.31033928222656
3.13724317659475,0.292092602539062,8.62391437988281,5.22893642578125
3.13936299039683,0.253785375976562,8.57603034667969,5.27682045898437
3.14148199994544,0.296881005859375,8.60476076660156,5.3247044921875
3.14360100949404,0.320823022460937,8.59039555664062,5.24330163574219
3.14572001904265,0.292092602539062,8.56645354003906,5.23851323242187
3.14790233566592,0.272938989257812,8.60954916992188,5.29118566894531
3.15008465228919,0.196324536132812,8.62870278320312,5.27682045898437
3.15226696891245,0.21068974609375,8.6191259765625,5.27682045898437
3.15445038492808,0.1915361328125,8.66222160644531,5.22893642578125
3.15663380094371,0.244208569335937,8.57603034667969,5.28160886230469
3.15881721695933,0.220266552734375,8.60476076660156,5.28160886230469
3.16085349028832,0.239420166015625,8.57124194335938,5.30076247558594
3.16288976361732,0.201112939453125,8.59039555664062,5.29597407226562
3.16492603694631,0.239420166015625,8.59039555664062,5.25766684570312
3.16694283642547,0.234631762695312,8.58560715332031,5.26245524902344
3.16895963590464,0.239420166015625,8.59518395996094,5.27682045898437
3.1709764353838,0.244208569335937,8.58560715332031,5.29118566894531
3.17308641400794,0.258573779296875,8.6191259765625,5.286397265625
3.17519639263207,0.292092602539062,8.60476076660156,5.286397265625
3.1773063712562,0.263362182617187,8.60954916992188,5.29597407226562
3.17938983490638,0.296881005859375,8.65264479980469,5.25766684570312
3.18147329855656,0.282515795898438,8.62391437988281,5.27203205566406
3.18355676220674,0.282515795898438,8.66222160644531,5.3247044921875
3.18560289686386,0.330399829101562,8.64306799316406,5.26245524902344
3.18764903152098,0.335188232421875,8.63349118652344,5.26245524902344
3.1896951661781,0.359130249023437,8.63349118652344,5.25287844238281
3.19173178542723,0.349553442382812,8.64306799316406,5.21935961914062
3.19376840467636,0.339976635742188,8.59518395996094,5.24330163574219
3.19580502392549,0.373495458984375,8.59997236328125,5.29597407226562
3.19791100320067,0.368707055664062,8.59997236328125,5.30555087890625
3.20001698247584,0.378283862304687,8.57124194335938,5.33428129882812
3.20212296175102,0.378283862304687,8.57124194335938,5.29118566894531
3.20423467019285,0.349553442382812,8.5425115234375,5.27203205566406
3.20634637863469,0.354341845703125,8.48505068359375,5.30555087890625
3.20845808707653,0.373495458984375,8.47547387695312,5.25287844238281
3.21056600440199,0.383072265625,8.4658970703125,5.25287844238281
3.21267392172745,0.339976635742188,8.44674345703125,5.20020600585937
3.2147818390529,0.316034619140625,8.45632026367188,5.22414802246094
3.22098900180557,0.378283862304687,8.60476076660156,5.18584079589844
3.22719616455825,0.411802685546875,8.6191259765625,5.13795676269531
3.23340332731092,0.40222587890625,8.61433757324219,5.1714755859375
3.2354495677406,0.411802685546875,8.60476076660156,5.24330163574219
3.23749580817029,0.397437475585937,8.63349118652344,5.2097828125
3.23954204859998,0.411802685546875,8.60954916992188,5.20499440917969
3.2415888895288,0.45968671875,8.65264479980469,5.20499440917969
3.24363573045762,0.435744702148437,8.65264479980469,5.17626398925781
3.24568257138644,0.464475122070312,8.66222160644531,5.18584079589844
3.24773143110866,0.45968671875,8.67658681640625,5.17626398925781
3.24978029083088,0.40222587890625,8.66222160644531,5.19062919921875
3.25182915055311,0.44053310546875,8.70052883300781,5.15711037597656
3.25497427207546,0.435744702148437,8.69095202636719,5.16668718261719
3.25811939359782,0.426167895507812,8.64306799316406,5.19541760253906
3.26126451512017,0.454898315429687,8.69095202636719,5.14753356933594
3.26337477367052,0.426167895507812,8.68616362304688,5.19541760253906
3.26548503222086,0.392649072265625,8.62870278320312,5.19062919921875
3.26759529077121,0.407014282226562,8.62391437988281,5.19541760253906
3.2697070828719,0.392649072265625,8.6191259765625,5.16189877929687
3.27181887497259,0.411802685546875,8.6191259765625,5.133168359375
3.27393066707328,0.416591088867187,8.59997236328125,5.2480900390625
3.27604561032415,0.40222587890625,8.61433757324219,5.16668718261719
3.27816055357501,0.407014282226562,8.61433757324219,5.12837995605469
3.28027549682588,0.373495458984375,8.58081875,5.17626398925781
3.28239333493351,0.4213794921875,8.61433757324219,5.16189877929687
3.28451117304115,0.430956298828125,8.60476076660156,5.19541760253906
3.28662901114879,0.383072265625,8.58081875,5.17626398925781
3.2888054816349,0.411802685546875,8.54729992675781,5.20499440917969
3.29098195212102,0.411802685546875,8.55208833007812,5.18105239257812
3.29315842260713,0.40222587890625,8.60476076660156,5.1714755859375
3.29528019816052,0.373495458984375,8.5425115234375,5.1714755859375
3.2974019737139,0.3447650390625,8.51378110351562,5.11401474609375
3.29952374926729,0.40222587890625,8.51856950683594,5.08528432617187
3.30162589390705,0.32561142578125,8.55687673339844,5.13795676269531
3.3037280385468,0.339976635742188,8.55687673339844,5.09964953613281
3.30583018318656,0.3447650390625,8.50899270019531,5.09007272949219
3.30792985500731,0.311246215820312,8.49462749023438,5.1714755859375
3.31002952682805,0.311246215820312,8.504204296875,5.13795676269531
3.3121291986488,0.339976635742188,8.55687673339844,5.16668718261719
3.31422682896564,0.320823022460937,8.55208833007812,5.1714755859375
3.31632445928248,0.316034619140625,8.55208833007812,5.18105239257812
3.31842208959932,0.3064578125,8.57603034667969,5.1714755859375
3.3205861534014,0.3447650390625,8.57124194335938,5.12359155273437
3.32275021720348,0.3064578125,8.53772312011719,5.18105239257812
3.32491428100557,0.330399829101562,8.55687673339844,5.10443793945312
3.32705593551945,0.330399829101562,8.58560715332031,5.16668718261719
3.32919759003334,0.3447650390625,8.57603034667969,5.133168359375
3.33133924454723,0.311246215820312,8.59997236328125,5.2097828125
3.33344945743786,0.311246215820312,8.58081875,5.12837995605469
3.33555967032848,0.28730419921875,8.62391437988281,5.133168359375
3.3376698832191,0.335188232421875,8.61433757324219,5.2097828125
3.33977197089272,0.330399829101562,8.63349118652344,5.19062919921875
3.34187405856633,0.32561142578125,8.62870278320312,5.19062919921875
3.34397614623994,0.3447650390625,8.63827958984375,5.13795676269531
3.34607806941703,0.368707055664062,8.63349118652344,5.13795676269531
3.34817999259412,0.335188232421875,8.66701000976562,5.20499440917969
3.3502819157712,0.359130249023437,8.67179841308594,5.19541760253906
3.35251885788275,0.32561142578125,8.66222160644531,5.21935961914062
3.3547557999943,0.301669409179687,8.66222160644531,5.18105239257812
3.35699274210585,0.32561142578125,8.6957404296875,5.12837995605469
3.35921203073432,0.339976635742188,8.67179841308594,5.15711037597656
3.36143131936279,0.296881005859375,8.68616362304688,5.17626398925781
3.36365060799126,0.339976635742188,8.6957404296875,5.12359155273437
3.36584671308024,0.335188232421875,8.70052883300781,5.21935961914062
3.36804281816921,0.32561142578125,8.66701000976562,5.18584079589844
3.37023892325819,0.311246215820312,8.67658681640625,5.23372482910156
3.37243386553249,0.296881005859375,8.6957404296875,5.16668718261719
3.37462880780679,0.330399829101562,8.65264479980469,5.1714755859375
3.3768237500811,0.3064578125,8.68616362304688,5.19062919921875
3.37908213495523,0.277727392578125,8.6957404296875,5.16189877929687
3.38134051982937,0.296881005859375,8.68137521972656,5.2097828125
3.3835989047035,0.272938989257812,8.70052883300781,5.18584079589844
3.38586135245741,0.349553442382812,8.68616362304688,5.18105239257812
3.38812380021132,0.311246215820312,8.70052883300781,5.16668718261719
3.39038624796523,0.311246215820312,8.68137521972656,5.16668718261719
3.39699253957765,0.316034619140625,8.59518395996094,5.18105239257812
3.40359883119007,0.282515795898438,8.60476076660156,5.286397265625
3.41020512280248,0.301669409179687,8.6191259765625,5.1714755859375
3.41239480335804,0.3447650390625,8.63349118652344,5.22893642578125
3.41458448391359,0.335188232421875,8.60954916992188,5.27203205566406
3.41677416446915,0.330399829101562,8.65264479980469,5.29597407226562
3.41895674275691,0.36391865234375,8.64306799316406,5.23851323242187
3.42113932104467,0.32561142578125,8.62870278320312,5.26724365234375
3.42332189933243,0.32561142578125,8.62391437988281,5.22893642578125
3.42547429814971,0.296881005859375,8.58081875,5.21935961914062
3.42762669696699,0.301669409179687,8.59039555664062,5.25766684570312
3.42977909578427,0.311246215820312,8.55208833007812,5.23372482910156
3.43190735207767,0.320823022460937,8.53293471679688,5.23851323242187
3.43403560837107,0.330399829101562,8.57603034667969,5.31512768554687
3.43616386466448,0.349553442382812,8.50899270019531,5.23851323242187
3.43834709779165,0.301669409179687,8.53293471679688,5.18584079589844
3.44053033091881,0.3064578125,8.53293471679688,5.22414802246094
3.44271356404598,0.282515795898438,8.52814631347656,5.23372482910156
3.44490194165015,0.272938989257812,8.53293471679688,5.2097828125
3.44709031925432,0.272938989257812,8.49462749023438,5.21457121582031
3.44927869685849,0.282515795898438,8.53772312011719,5.18584079589844
3.45148263571483,0.282515795898438,8.48505068359375,5.20020600585937
3.45368657457116,0.24899697265625,8.47547387695312,5.18105239257812
3.4558905134275,0.253785375976562,8.49462749023438,5.22414802246094
3.45806400127472,0.234631762695312,8.48026228027344,5.19062919921875
3.46023748912194,0.220266552734375,8.48983908691406,5.25766684570312
3.46241097696916,0.239420166015625,8.51378110351562,5.22893642578125
3.46451510348826,0.1915361328125,8.48983908691406,5.20499440917969
3.46661923000735,0.205901342773437,8.49462749023438,5.21457121582031
3.46872335652645,0.158017309570312,8.55687673339844,5.25766684570312
3.47083034535024,0.15322890625,8.53772312011719,5.16668718261719
3.47293733417403,0.215478149414062,8.54729992675781,5.22414802246094
3.47504432299781,0.21068974609375,8.52814631347656,5.16668718261719
3.477148696967,0.229843359375,8.57603034667969,5.23372482910156
3.47925307093618,0.201112939453125,8.58560715332031,5.26245524902344
3.48135744490537,0.244208569335937,8.62870278320312,5.25287844238281
3.48353373706032,0.186747729492187,8.64306799316406,5.20020600585937
3.48571002921527,0.201112939453125,8.64785639648438,5.22414802246094
3.48788632137022,0.229843359375,8.67658681640625,5.18584079589844
3.49006145581032,0.225054956054687,8.66222160644531,5.22414802246094
3.49223659025043,0.220266552734375,8.657433203125,5.21457121582031
3.49441172469053,0.205901342773437,8.657433203125,5.20499440917969
3.49658609708637,0.229843359375,8.71489404296875,5.21457121582031
3.4987604694822,0.234631762695312,8.66222160644531,5.2480900390625
3.50093484187803,0.229843359375,8.66701000976562,5.15711037597656
3.50310212498621,0.225054956054687,8.68137521972656,5.16189877929687
3.5052694080944,0.220266552734375,8.66222160644531,5.20499440917969
3.50743669120258,0.229843359375,8.67658681640625,5.2097828125
3.50957448250304,0.229843359375,8.657433203125,5.1714755859375
3.51171227380349,0.234631762695312,8.66701000976562,5.20499440917969
3.51385006510395,0.253785375976562,8.67658681640625,5.15711037597656
3.51596612923156,0.201112939453125,8.657433203125,5.22414802246094
3.51808219335916,0.282515795898438,8.64306799316406,5.2097828125
3.52019825748677,0.272938989257812,8.65264479980469,5.18105239257812
3.5223115313583,0.239420166015625,8.63349118652344,5.15711037597656
3.52442480522983,0.2681505859375,8.62391437988281,5.13795676269531
3.52653807910136,0.253785375976562,8.63349118652344,5.20499440917969
3.52976022374111,0.239420166015625,8.6191259765625,5.15232197265625
3.53298236838087,0.239420166015625,8.59039555664062,5.07570751953125
3.53620451302062,0.239420166015625,8.63827958984375,5.20020600585937
3.53836548470031,0.253785375976562,8.60476076660156,5.20499440917969
3.54052645638,0.272938989257812,8.62391437988281,5.22414802246094
3.54268742805969,0.311246215820312,8.57603034667969,5.15232197265625
3.54497447531446,0.253785375976562,8.58560715332031,5.17626398925781
3.54726152256924,0.205901342773437,8.60476076660156,5.14274516601562
3.54954856982402,0.244208569335937,8.58081875,5.15232197265625
3.55181681271681,0.28730419921875,8.58560715332031,5.18105239257812
3.55408505560961,0.234631762695312,8.61433757324219,5.12359155273437
3.5563532985024,0.292092602539062,8.61433757324219,5.16189877929687
3.55862164865431,0.263362182617187,8.62870278320312,5.16189877929687
3.56088999880622,0.244208569335937,8.64785639648438,5.19062919921875
3.56315834895813,0.253785375976562,8.60954916992188,5.18584079589844
3.56542681857618,0.253785375976562,8.63349118652344,5.2097828125
3.56769528819424,0.28730419921875,8.65264479980469,5.19062919921875
3.56996375781229,0.253785375976562,8.67658681640625,5.16189877929687
3.57223321679667,0.253785375976562,8.69095202636719,5.15232197265625
3.57450267578104,0.253785375976562,8.69095202636719,5.13795676269531
3.57677213476542,0.229843359375,8.67658681640625,5.23851323242187
3.57900753542731,0.220266552734375,8.66222160644531,5.24330163574219
3.58124293608921,0.239420166015625,8.72925925292969,5.20020600585937
3.5834783367511,0.282515795898438,8.66701000976562,5.19062919921875
3.58567907986091,0.253785375976562,8.71968244628906,5.14274516601562
3.58787982297072,0.21068974609375,8.71489404296875,5.18105239257812
3.59008056608053,0.1915361328125,8.75320126953125,5.21935961914062
3.59900285888651,0.311246215820312,8.60954916992188,5.2097828125
3.60792515169249,0.277727392578125,8.62870278320312,5.23851323242187
3.61684744449848,0.277727392578125,8.61433757324219,5.19541760253906
3.61905157432704,0.301669409179687,8.60476076660156,5.18105239257812
3.6212557041556,0.292092602539062,8.57603034667969,5.19062919921875
3.62345983398416,0.277727392578125,8.60476076660156,5.2097828125
3.62567682595465,0.301669409179687,8.59518395996094,5.25766684570312
3.62789381792513,0.311246215820312,8.60954916992188,5.21457121582031
3.63011080989562,0.311246215820312,8.57124194335938,5.19062919921875
3.63233137093077,0.320823022460937,8.60954916992188,5.26724365234375
3.63455193196592,0.311246215820312,8.6191259765625,5.19541760253906
3.63677249300108,0.335188232421875,8.61433757324219,5.2097828125
3.63899384396679,0.296881005859375,8.56166513671875,5.18105239257812
3.6412151949325,0.301669409179687,8.59997236328125,5.1714755859375
3.64343654589821,0.301669409179687,8.59039555664062,5.21935961914062
3.64565760389518,0.330399829101562,8.60476076660156,5.22414802246094
3.64787866189214,0.282515795898438,8.57124194335938,5.27682045898437
3.6500997198891,0.311246215820312,8.59997236328125,5.1714755859375
3.65229053987608,0.330399829101562,8.58560715332031,5.19062919921875
3.65448135986306,0.301669409179687,8.56645354003906,5.2480900390625
3.65667217985004,0.301669409179687,8.52335791015625,5.21935961914062
3.65878647607401,0.320823022460937,8.57603034667969,5.22414802246094
3.66090077229797,0.320823022460937,8.5425115234375,5.23851323242187
3.66301506852193,0.292092602539062,8.59039555664062,5.23372482910156
3.66512422715908,0.339976635742188,8.52335791015625,5.29597407226562
3.66723338579623,0.32561142578125,8.59518395996094,5.25766684570312
3.66934254443338,0.330399829101562,8.55687673339844,5.23851323242187
3.67145206678581,0.3447650390625,8.57603034667969,5.16668718261719
3.67356158913824,0.368707055664062,8.57124194335938,5.24330163574219
3.67567111149068,0.330399829101562,8.57603034667969,5.20020600585937
3.67778092692036,0.359130249023437,8.54729992675781,5.18584079589844
3.67989074235005,0.349553442382812,8.55687673339844,5.18105239257812
3.68200055777973,0.3447650390625,8.53293471679688,5.20499440917969
3.68411029524718,0.378283862304687,8.52814631347656,5.22414802246094
3.68622003271462,0.36391865234375,8.51378110351562,5.2097828125
3.68832977018207,0.378283862304687,8.54729992675781,5.133168359375
3.69043865337434,0.36391865234375,8.51378110351562,5.25766684570312
3.69254753656661,0.387860668945312,8.53293471679688,5.23372482910156
3.69465641975888,0.368707055664062,8.54729992675781,5.23372482910156
3.69673152441383,0.373495458984375,8.51378110351562,5.25287844238281
3.69880662906878,0.392649072265625,8.51856950683594,5.25287844238281
3.70088173372372,0.368707055664062,8.57124194335938,5.17626398925781
3.70292402470834,0.4213794921875,8.56645354003906,5.19062919921875
3.70496631569296,0.416591088867187,8.58560715332031,5.20020600585937
3.70700860667758,0.40222587890625,8.55208833007812,5.18584079589844
3.7091156945217,0.469263525390625,8.58560715332031,5.20499440917969
3.71122278236582,0.416591088867187,8.59997236328125,5.1714755859375
3.71332987020995,0.392649072265625,8.60476076660156,5.17626398925781
3.71551482370697,0.430956298828125,8.62391437988281,5.19541760253906
3.71769977720399,0.435744702148437,8.63349118652344,5.19062919921875
3.71988473070102,0.387860668945312,8.64306799316406,5.19541760253906
3.7220724022815,0.378283862304687,8.63349118652344,5.15232197265625
3.72426007386198,0.383072265625,8.66701000976562,5.18105239257812
3.72644774544246,0.416591088867187,8.64306799316406,5.18105239257812
3.72863645751928,0.40222587890625,8.657433203125,5.16668718261719
3.73082516959611,0.411802685546875,8.68137521972656,5.18584079589844
3.73301388167293,0.40222587890625,8.67658681640625,5.21935961914062
3.73520264811173,0.411802685546875,8.71010563964844,5.16189877929687
3.73739141455053,0.426167895507812,8.657433203125,5.22414802246094
3.73958018098932,0.416591088867187,8.67658681640625,5.16668718261719
3.74176885904922,0.407014282226562,8.70531723632812,5.15232197265625
3.74395753710911,0.397437475585937,8.68616362304688,5.1714755859375
3.74614621516901,0.4213794921875,8.657433203125,5.16668718261719
3.74833605517552,0.411802685546875,8.68616362304688,5.12359155273437
3.75052589518204,0.454898315429687,8.66222160644531,5.19062919921875
3.75271573518855,0.392649072265625,8.65264479980469,5.16668718261719
3.75486884027752,0.430956298828125,8.68616362304688,5.13795676269531
3.7570219453665,0.40222587890625,8.657433203125,5.15711037597656
3.75917505045548,0.426167895507812,8.6957404296875,5.15711037597656
3.76345930349367,0.416591088867187,8.70052883300781,5.11401474609375
3.76774355653187,0.4213794921875,8.66222160644531,5.14753356933594
3.77202780957007,0.44053310546875,8.70531723632812,5.19541760253906
3.77412862022545,0.435744702148437,8.67658681640625,5.09964953613281
3.77622943088083,0.4213794921875,8.66701000976562,5.12837995605469
3.77833024153621,0.488417138671875,8.64306799316406,5.18584079589844
3.78042033219377,0.4213794921875,8.62391437988281,5.14274516601562
3.78251042285132,0.44053310546875,8.63827958984375,5.13795676269531
3.78460051350887,0.44053310546875,8.657433203125,5.12359155273437
3.78676096099151,0.445321508789062,8.64785639648438,5.133168359375
3.78892140847415,0.464475122070312,8.59039555664062,5.1714755859375
3.79108185595679,0.450109912109375,8.56645354003906,5.16668718261719
3.79324119965253,0.45968671875,8.62391437988281,5.15711037597656
3.79540054334828,0.474051928710937,8.57124194335938,5.13795676269531
3.79755988704402,0.450109912109375,8.59518395996094,5.18584079589844
3.79971713406008,0.464475122070312,8.57603034667969,5.11880314941406
3.80187438107614,0.502782348632812,8.58560715332031,5.15232197265625
3.8040316280922,0.493205541992187,8.59518395996094,5.18584079589844
3.80618673508005,0.464475122070312,8.59518395996094,5.20020600585937
3.8083418420679,0.4979939453125,8.60476076660156,5.2480900390625
3.81049694905574,0.47884033203125,8.58560715332031,5.20499440917969
3.81264306675865,0.488417138671875,8.59997236328125,5.21457121582031
3.81478918446156,0.469263525390625,8.58081875,5.21457121582031
3.81693530216447,0.454898315429687,8.64306799316406,5.22414802246094
3.81905652123999,0.469263525390625,8.62870278320312,5.16189877929687
3.82117774031551,0.493205541992187,8.69095202636719,5.21457121582031
3.82329895939103,0.483628735351562,8.63349118652344,5.23851323242187
3.82564029044572,0.435744702148437,8.657433203125,5.21457121582031
3.82798162150041,0.45968671875,8.66222160644531,5.18105239257812
3.8303229525551,0.430956298828125,8.657433203125,5.17626398925781
3.83266815535458,0.44053310546875,8.63827958984375,5.18105239257812
3.83501335815406,0.430956298828125,8.67179841308594,5.18105239257812
3.83735856095354,0.416591088867187,8.70052883300781,5.21457121582031
3.83971955303253,0.454898315429687,8.69095202636719,5.10443793945312
3.84208054511153,0.407014282226562,8.657433203125,5.16668718261719
3.84444153719053,0.411802685546875,8.68616362304688,5.25766684570312
3.84685401624869,0.4213794921875,8.67658681640625,5.20499440917969
3.84926649530685,0.426167895507812,8.70531723632812,5.20020600585937
3.85167897436501,0.392649072265625,8.66701000976562,5.2097828125
3.85402858732074,0.416591088867187,8.6957404296875,5.17626398925781
3.85637820027647,0.392649072265625,8.64785639648438,5.24330163574219
3.8587278132322,0.40222587890625,8.66701000976562,5.2097828125
3.86114504109678,0.40222587890625,8.68616362304688,5.20020600585937
3.86356226896137,0.407014282226562,8.68616362304688,5.22893642578125
3.86597949682595,0.430956298828125,8.657433203125,5.20499440917969
3.86839778870963,0.426167895507812,8.67179841308594,5.21457121582031
3.87081608059331,0.411802685546875,8.64306799316406,5.21457121582031
3.87323437247699,0.407014282226562,8.67179841308594,5.22414802246094
3.8859953005369,0.4213794921875,8.6191259765625,5.20499440917969
3.89875622859681,0.44053310546875,8.67179841308594,5.19062919921875
3.91151715665671,0.435744702148437,8.68137521972656,5.15711037597656
3.91378570374873,0.430956298828125,8.65264479980469,5.20020600585937
3.91605425084074,0.4213794921875,8.68616362304688,5.19541760253906
3.91832279793276,0.392649072265625,8.64785639648438,5.20020600585937
3.92059335804561,0.430956298828125,8.64785639648438,5.18584079589844
3.92286391815846,0.4213794921875,8.6957404296875,5.133168359375
3.9251344782713,0.430956298828125,8.69095202636719,5.2097828125
3.92964275390065,0.397437475585937,8.59518395996094,5.15232197265625
3.93415102952999,0.397437475585937,8.57124194335938,5.12837995605469
3.93865930515934,0.397437475585937,8.58560715332031,5.12837995605469
3.94089207873789,0.407014282226562,8.61433757324219,5.17626398925781
3.94312485231645,0.411802685546875,8.64785639648438,5.18584079589844
3.94535762589501,0.407014282226562,8.61433757324219,5.15232197265625
3.95098896644405,0.368707055664062,8.55208833007812,5.19062919921875
3.95662030699309,0.392649072265625,8.54729992675781,5.286397265625
3.96225164754213,0.407014282226562,8.52814631347656,5.20499440917969
3.96451544463415,0.411802685546875,8.52335791015625,5.18584079589844
3.96677924172616,0.4213794921875,8.5425115234375,5.17626398925781
3.96904303881817,0.430956298828125,8.56645354003906,5.21935961914062
3.97130773695185,0.4213794921875,8.57603034667969,5.1714755859375
3.97357243508553,0.4213794921875,8.56166513671875,5.12837995605469
3.97583713321922,0.454898315429687,8.59997236328125,5.11880314941406
3.97810203057165,0.454898315429687,8.60476076660156,5.14753356933594
3.98036692792408,0.474051928710937,8.60954916992188,5.15232197265625
3.98263182527651,0.464475122070312,8.63349118652344,5.07570751953125
3.98483333862287,0.464475122070312,8.60954916992188,5.15232197265625
3.98703485196922,0.483628735351562,8.63349118652344,5.14274516601562
3.98923636531558,0.445321508789062,8.64306799316406,5.15232197265625
3.99149875398745,0.483628735351562,8.64306799316406,5.13795676269531
3.99376114265933,0.430956298828125,8.64785639648438,5.18584079589844
3.9960235313312,0.488417138671875,8.61433757324219,5.22414802246094
3.99828956334075,0.488417138671875,8.60954916992188,5.133168359375
4.0005555953503,0.45968671875,8.64306799316406,5.19062919921875
4.00282162735985,0.435744702148437,8.62391437988281,5.21457121582031
4.00508808764631,0.454898315429687,8.60954916992188,5.2480900390625
4.00735454793277,0.45968671875,8.61433757324219,5.16668718261719
4.00962100821923,0.411802685546875,8.62870278320312,5.19541760253906
4.01174458699527,0.4213794921875,8.61433757324219,5.21935961914062
4.01386816577131,0.407014282226562,8.59039555664062,5.20499440917969
4.01599174454735,0.454898315429687,8.62870278320312,5.15711037597656
4.01811600225134,0.435744702148437,8.63827958984375,5.133168359375
4.02024025995533,0.454898315429687,8.60476076660156,5.19062919921875
4.02236451765933,0.454898315429687,8.67179841308594,5.15711037597656
4.02454668660464,0.435744702148437,8.657433203125,5.21935961914062
4.02672885554995,0.435744702148437,8.66701000976562,5.17626398925781
4.02891102449526,0.464475122070312,8.67658681640625,5.20499440917969
4.03109481865758,0.493205541992187,8.69095202636719,5.17626398925781
4.03327861281991,0.488417138671875,8.67658681640625,5.133168359375
4.03546240698223,0.435744702148437,8.6957404296875,5.13795676269531
4.03757795320619,0.4979939453125,8.64785639648438,5.11880314941406
4.03969349943015,0.488417138671875,8.64785639648438,5.12359155273437
4.04180904565411,0.474051928710937,8.65264479980469,5.19541760253906
4.04391889016366,0.488417138671875,8.63827958984375,5.17626398925781
4.04602873467321,0.469263525390625,8.62391437988281,5.22414802246094
4.04813857918276,0.502782348632812,8.57603034667969,5.20499440917969
4.05024822881384,0.464475122070312,8.59997236328125,5.20020600585937
4.05235787844491,0.44053310546875,8.60954916992188,5.16189877929687
4.05446752807599,0.493205541992187,8.58560715332031,5.16668718261719
4.05664417401783,0.483628735351562,8.61433757324219,5.16668718261719
4.05882081995967,0.450109912109375,8.57124194335938,5.16668718261719
4.06099746590151,0.435744702148437,8.57603034667969,5.2097828125
4.0631759221732,0.426167895507812,8.60476076660156,5.15711037597656
4.0653543784449,0.469263525390625,8.6191259765625,5.14274516601562
4.0675328347166,0.469263525390625,8.64785639648438,5.16189877929687
4.06971261271139,0.507570751953125,8.59518395996094,5.11401474609375
4.07189239070618,0.493205541992187,8.64306799316406,5.16668718261719
4.07407216870097,0.47884033203125,8.6957404296875,5.14274516601562
4.0762518864744,0.4979939453125,8.72447084960938,5.12837995605469
4.07843160424784,0.483628735351562,8.71489404296875,5.16189877929687
4.08061132202128,0.45968671875,8.68616362304688,5.21935961914062
4.08279099009854,0.474051928710937,8.6957404296875,5.1714755859375
4.0849706581758,0.445321508789062,8.68137521972656,5.14274516601562
4.08715032625305,0.454898315429687,8.69095202636719,5.09007272949219
4.08939680140496,0.426167895507812,8.66222160644531,5.16668718261719
4.09164327655688,0.450109912109375,8.64306799316406,5.16189877929687
4.09388975170879,0.416591088867187,8.62870278320312,5.1714755859375
4.09609529405362,0.426167895507812,8.66222160644531,5.20499440917969
4.09830083639845,0.435744702148437,8.61433757324219,5.14753356933594
4.10050637874329,0.445321508789062,8.60954916992188,5.14274516601562
4.10269710427497,0.407014282226562,8.62391437988281,5.2097828125
4.10488782980666,0.426167895507812,8.62391437988281,5.20020600585937
4.10707855533834,0.450109912109375,8.62391437988281,5.15232197265625
4.10926787863479,0.454898315429687,8.64306799316406,5.17626398925781
4.11145720193123,0.4213794921875,8.63827958984375,5.16189877929687
4.11364652522767,0.426167895507812,8.62391437988281,5.14274516601562
4.11583383355015,0.493205541992187,8.60476076660156,5.09964953613281
4.11802114187264,0.454898315429687,8.61433757324219,5.1714755859375
4.12020845019512,0.416591088867187,8.61433757324219,5.14753356933594
4.1224597663301,0.411802685546875,8.65264479980469,5.18105239257812
4.12471108246509,0.454898315429687,8.64785639648438,5.17626398925781
4.12696239860007,0.416591088867187,8.62391437988281,5.09007272949219
4.12918807671423,0.392649072265625,8.63827958984375,5.133168359375
4.13141375482838,0.445321508789062,8.59997236328125,5.13795676269531
4.13363943294253,0.435744702148437,8.63349118652344,5.10443793945312
4.13583721044903,0.435744702148437,8.63827958984375,5.15232197265625
4.13803498795554,0.435744702148437,8.64785639648438,5.10922634277344
4.14023276546205,0.44053310546875,8.657433203125,5.10922634277344
4.14242976877151,0.392649072265625,8.60476076660156,5.15232197265625
4.14462677208097,0.454898315429687,8.59039555664062,5.16189877929687
4.14682377539043,0.407014282226562,8.59039555664062,5.16668718261719
4.14902067377367,0.454898315429687,8.62870278320312,5.16668718261719
4.15121757215692,0.469263525390625,8.59997236328125,5.15711037597656
4.15341447054017,0.45968671875,8.60954916992188,5.14753356933594
4.15567178700067,0.44053310546875,8.60954916992188,5.19541760253906
4.15792910346118,0.44053310546875,8.58081875,5.16668718261719
4.16018641992168,0.435744702148437,8.60954916992188,5.12359155273437
4.16241214664695,0.454898315429687,8.63349118652344,5.19062919921875
4.16463787337221,0.450109912109375,8.59997236328125,5.18105239257812
4.16686360009747,0.44053310546875,8.59518395996094,5.17626398925781
4.1690545591361,0.454898315429687,8.60954916992188,5.27203205566406
4.17124551817473,0.445321508789062,8.61433757324219,5.20499440917969
4.17343647721335,0.435744702148437,8.62391437988281,5.1714755859375
4.17562873600241,0.45968671875,8.64785639648438,5.2097828125
4.17782099479148,0.44053310546875,8.64785639648438,5.18105239257812
4.18001325358054,0.483628735351562,8.61433757324219,5.1714755859375
4.18220469878453,0.450109912109375,8.657433203125,5.15711037597656
4.18439614398852,0.426167895507812,8.66222160644531,5.2480900390625
4.18658758919252,0.469263525390625,8.657433203125,5.18105239257812
4.18883677832012,0.464475122070312,8.65264479980469,5.18105239257812
4.19108596744772,0.469263525390625,8.66222160644531,5.2097828125
4.19333515657533,0.44053310546875,8.65264479980469,5.2480900390625
4.19551675895162,0.407014282226562,8.61433757324219,5.15711037597656
4.19769836132792,0.450109912109375,8.63827958984375,5.17626398925781
4.19987996370422,0.469263525390625,8.57603034667969,5.18584079589844
4.20199069791646,0.464475122070312,8.62391437988281,5.23372482910156
4.2041014321287,0.47884033203125,8.63827958984375,5.18584079589844
4.20621216634094,0.44053310546875,8.59518395996094,5.24330163574219
4.20832020594598,0.464475122070312,8.60954916992188,5.22414802246094
4.21042824555102,0.44053310546875,8.59997236328125,5.22414802246094
4.21253628515605,0.464475122070312,8.58081875,5.18584079589844
4.21471271728496,0.430956298828125,8.57603034667969,5.11401474609375
4.21688914941386,0.435744702148437,8.6191259765625,5.23372482910156
4.21906558154277,0.44053310546875,8.55687673339844,5.22414802246094
4.22121181423591,0.44053310546875,8.56166513671875,5.22414802246094
4.22335804692905,0.464475122070312,8.51378110351562,5.22893642578125
4.2255042796222,0.445321508789062,8.54729992675781,5.19062919921875
4.22761688259528,0.4213794921875,8.56166513671875,5.21457121582031
4.22972948556837,0.407014282226562,8.52814631347656,5.20499440917969
4.23184208854146,0.392649072265625,8.51856950683594,5.2097828125
4.23395375984137,0.392649072265625,8.47547387695312,5.21457121582031
4.23606543114128,0.383072265625,8.50899270019531,5.24330163574219
4.2381771024412,0.392649072265625,8.53293471679688,5.26724365234375
4.24028989926194,0.40222587890625,8.50899270019531,5.21935961914062
4.24240269608269,0.40222587890625,8.504204296875,5.18105239257812
4.24451549290344,0.387860668945312,8.51856950683594,5.23372482910156
4.24669532724588,0.407014282226562,8.52814631347656,5.25766684570312
4.24887516158832,0.40222587890625,8.48505068359375,5.20499440917969
4.25105499593077,0.435744702148437,8.53772312011719,5.20499440917969
4.25323462315516,0.387860668945312,8.55687673339844,5.23372482910156
4.25541425037956,0.397437475585937,8.54729992675781,5.2480900390625
4.25759387760395,0.407014282226562,8.53293471679688,5.18584079589844
4.25977123079405,0.416591088867187,8.54729992675781,5.24330163574219
4.26194858398416,0.397437475585937,8.55208833007812,5.23372482910156
4.26412593717426,0.411802685546875,8.52335791015625,5.24330163574219
4.26630254351107,0.430956298828125,8.57603034667969,5.20020600585937
4.26847914984787,0.383072265625,8.5425115234375,5.20499440917969
4.27065575618468,0.4213794921875,8.51378110351562,5.1714755859375
4.27283227701801,0.430956298828125,8.53293471679688,5.23372482910156
4.27500879785134,0.40222587890625,8.58081875,5.23851323242187
4.27718531868468,0.44053310546875,8.55208833007812,5.20499440917969
4.27940150819206,0.40222587890625,8.55687673339844,5.18584079589844
4.28161769769944,0.407014282226562,8.55687673339844,5.24330163574219
4.28383388720682,0.407014282226562,8.57124194335938,5.18105239257812
4.28602493977844,0.383072265625,8.59039555664062,5.20020600585937
4.28821599235005,0.411802685546875,8.59039555664062,5.19541760253906
4.29040704492167,0.40222587890625,8.55687673339844,5.2480900390625
4.29258802739779,0.378283862304687,8.58081875,5.25766684570312
4.29476900987392,0.445321508789062,8.59997236328125,5.23372482910156
4.29694999235005,0.44053310546875,8.59518395996094,5.22893642578125
4.29912223974588,0.426167895507812,8.56645354003906,5.21935961914062
4.30129448714171,0.4213794921875,8.59518395996094,5.26724365234375
4.30346673453755,0.430956298828125,8.55208833007812,5.24330163574219
4.30563696386698,0.392649072265625,8.55208833007812,5.24330163574219
4.3078071931964,0.44053310546875,8.55208833007812,5.19062919921875
4.30997742252583,0.464475122070312,8.5425115234375,5.22414802246094
4.31218697222201,0.445321508789062,8.5425115234375,5.16189877929687
4.31439652191819,0.464475122070312,8.57603034667969,5.1714755859375
4.31660607161438,0.464475122070312,8.55208833007812,5.26724365234375
4.3187975876734,0.469263525390625,8.54729992675781,5.18584079589844
4.32098910373243,0.454898315429687,8.504204296875,5.17626398925781
4.32318061979145,0.45968671875,8.58081875,5.19541760253906
4.3253346330293,0.469263525390625,8.55687673339844,5.26245524902344
4.32748864626715,0.521935961914062,8.56166513671875,5.19541760253906
4.329642659505,0.483628735351562,8.57603034667969,5.21457121582031
4.33176232649719,0.483628735351562,8.54729992675781,5.18584079589844
4.33388199348938,0.469263525390625,8.59039555664062,5.2097828125
4.33600166048157,0.47884033203125,8.55208833007812,5.21457121582031
4.33812265342862,0.469263525390625,8.62391437988281,5.18105239257812
4.34024364637567,0.507570751953125,8.57603034667969,5.1714755859375
4.34236463932271,0.51714755859375,8.59518395996094,5.22414802246094
4.34454519205709,0.531512768554687,8.59518395996094,5.21935961914062
4.34672574479146,0.507570751953125,8.59997236328125,5.20020600585937
4.34890629752583,0.469263525390625,8.60476076660156,5.18584079589844
4.35108882253668,0.507570751953125,8.63349118652344,5.16189877929687
4.35327134754753,0.493205541992187,8.58560715332031,5.20499440917969
4.35545387255838,0.44053310546875,8.63349118652344,5.18584079589844
4.35763727349154,0.454898315429687,8.61433757324219,5.15232197265625
4.3598206744247,0.454898315429687,8.64306799316406,5.21457121582031
4.36200407535786,0.426167895507812,8.59039555664062,5.1714755859375
4.36418752463086,0.430956298828125,8.62391437988281,5.15232197265625
4.36637097390386,0.469263525390625,8.63827958984375,5.1714755859375
4.36855442317686,0.445321508789062,8.59518395996094,5.15711037597656
4.37072255343945,0.47884033203125,8.63827958984375,5.14753356933594
4.37289068370204,0.426167895507812,8.63349118652344,5.19062919921875
4.37505881396462,0.445321508789062,8.64306799316406,5.24330163574219
4.37724578184657,0.426167895507812,8.6191259765625,5.1714755859375
4.37943274972851,0.454898315429687,8.64785639648438,5.22893642578125
4.38161971761046,0.44053310546875,8.61433757324219,5.21457121582031
4.38380299213303,0.44053310546875,8.64306799316406,5.2097828125
4.3859862666556,0.464475122070312,8.65264479980469,5.2097828125
4.38816954117816,0.445321508789062,8.62870278320312,5.14274516601562
4.39027992333962,0.469263525390625,8.64785639648438,5.22893642578125
4.39239030550108,0.44053310546875,8.62870278320312,5.21935961914062
4.39450068766254,0.45968671875,8.63349118652344,5.19541760253906
4.39660998041427,0.445321508789062,8.63827958984375,5.28160886230469
4.39871927316601,0.450109912109375,8.61433757324219,5.20499440917969
4.40082856591774,0.47884033203125,8.61433757324219,5.19062919921875
4.40293744938128,0.464475122070312,8.62391437988281,5.21457121582031
4.40504633284482,0.474051928710937,8.61433757324219,5.16668718261719
4.40715521630836,0.450109912109375,8.62391437988281,5.20499440917969
4.40926406602625,0.483628735351562,8.64306799316406,5.18105239257812
4.41137291574413,0.4979939453125,8.62870278320312,5.22414802246094
4.41348176546202,0.45968671875,8.66222160644531,5.14274516601562
4.41558965923372,0.445321508789062,8.64306799316406,5.22893642578125
4.41769755300542,0.483628735351562,8.60954916992188,5.20020600585937
4.41980544677713,0.51714755859375,8.64306799316406,5.21457121582031
4.42191308642556,0.430956298828125,8.62391437988281,5.20020600585937
4.42402072607399,0.469263525390625,8.6191259765625,5.25287844238281
4.42612836572243,0.488417138671875,8.61433757324219,5.22893642578125
4.42823659044031,0.4979939453125,8.62391437988281,5.2097828125
4.43034481515819,0.464475122070312,8.59997236328125,5.21935961914062
4.43245303987607,0.483628735351562,8.58081875,5.21935961914062
4.43673027480136,0.435744702148437,8.52814631347656,5.2097828125
4.44100750972665,0.483628735351562,8.51856950683594,5.16668718261719
4.44528474465194,0.51714755859375,8.52814631347656,5.10922634277344
4.44741659040157,0.488417138671875,8.57603034667969,5.20020600585937
4.4495484361512,0.488417138671875,8.57603034667969,5.24330163574219
4.45168028190083,0.474051928710937,8.59997236328125,5.27203205566406
4.45380128439649,0.488417138671875,8.59997236328125,5.21457121582031
4.45592228689215,0.454898315429687,8.56166513671875,5.16668718261719
4.45804328938781,0.454898315429687,8.55687673339844,5.21457121582031
4.46021134570291,0.464475122070312,8.55208833007812,5.23851323242187
4.46237940201802,0.474051928710937,8.59518395996094,5.21457121582031
4.46454745833312,0.464475122070312,8.60476076660156,5.15711037597656
4.4667176985675,0.474051928710937,8.60476076660156,5.21935961914062
4.46888793880188,0.450109912109375,8.60476076660156,5.21935961914062
4.47105817903626,0.454898315429687,8.64785639648438,5.20020600585937
4.47322607769077,0.411802685546875,8.55687673339844,5.2097828125
4.47539397634529,0.435744702148437,8.63827958984375,5.19541760253906
4.4775618749998,0.416591088867187,8.59997236328125,5.19062919921875
4.47973037684442,0.45968671875,8.63349118652344,5.22414802246094
4.48189887868903,0.445321508789062,8.64306799316406,5.22414802246094
4.48406738053365,0.430956298828125,8.57603034667969,5.24330163574219
4.48620930121508,0.416591088867187,8.57603034667969,5.30555087890625
4.4883512218965,0.445321508789062,8.59039555664062,5.23851323242187
4.49049314257793,0.474051928710937,8.62391437988281,5.23372482910156
4.49263778569858,0.483628735351562,8.63349118652344,5.26724365234375
4.49478242881924,0.483628735351562,8.63349118652344,5.2480900390625
4.4969270719399,0.4979939453125,8.61433757324219,5.22414802246094
4.49918671560309,0.454898315429687,8.64306799316406,5.17626398925781
4.50144635926629,0.450109912109375,8.67179841308594,5.18105239257812
4.50370600292948,0.454898315429687,8.64785639648438,5.20499440917969
4.5058982313366,0.483628735351562,8.66222160644531,5.20020600585937
4.50809045974372,0.435744702148437,8.66222160644531,5.19062919921875
4.51028268815083,0.44053310546875,8.64785639648438,5.22893642578125
4.51247573969163,0.45968671875,8.66701000976562,5.17626398925781
4.51466879123242,0.488417138671875,8.64785639648438,5.21935961914062
4.51686184277322,0.469263525390625,8.68616362304688,5.1714755859375
4.51905692415342,0.469263525390625,8.66222160644531,5.20499440917969
4.52125200553363,0.488417138671875,8.62391437988281,5.26245524902344
4.52344708691384,0.445321508789062,8.60954916992188,5.18105239257812
4.52570654817686,0.47884033203125,8.67179841308594,5.15711037597656
4.52796600943989,0.450109912109375,8.61433757324219,5.1714755859375
4.53022547070291,0.430956298828125,8.6191259765625,5.2097828125
4.53248830219163,0.445321508789062,8.65264479980469,5.20499440917969
4.53475113368034,0.450109912109375,8.59997236328125,5.13795676269531
4.53701396516906,0.454898315429687,8.56166513671875,5.18105239257812
4.53928009635396,0.469263525390625,8.57124194335938,5.19062919921875
4.54154622753885,0.483628735351562,8.60954916992188,5.21457121582031
4.54381235872375,0.430956298828125,8.58081875,5.27203205566406
4.54945581914584,0.4979939453125,8.58560715332031,5.21935961914062
4.55509927956793,0.4213794921875,8.58081875,5.15711037597656
4.56074273999002,0.450109912109375,8.57124194335938,5.20020600585937
4.56293460267448,0.450109912109375,8.57124194335938,5.17626398925781
4.56512646535894,0.464475122070312,8.59518395996094,5.22414802246094
4.56731832804341,0.445321508789062,8.56166513671875,5.17626398925781
4.56951062133768,0.430956298828125,8.58560715332031,5.18105239257812
4.57170291463194,0.450109912109375,8.61433757324219,5.22414802246094
4.57389520792621,0.407014282226562,8.62391437988281,5.20020600585937
4.57608717537413,0.493205541992187,8.60954916992188,5.21457121582031
4.57827914282205,0.454898315429687,8.60954916992188,5.26724365234375
4.58047111026997,0.44053310546875,8.58560715332031,5.23372482910156
4.58383961032422,0.450109912109375,8.62870278320312,5.14753356933594
4.58720811037847,0.426167895507812,8.62870278320312,5.15711037597656
4.59057661043272,0.454898315429687,8.58560715332031,5.20499440917969
4.59285167141362,0.44053310546875,8.63827958984375,5.20499440917969
4.59512673239453,0.45968671875,8.59039555664062,5.17626398925781
4.59740179337543,0.454898315429687,8.59997236328125,5.19541760253906
4.59967797121831,0.469263525390625,8.63827958984375,5.16189877929687
4.60195414906119,0.464475122070312,8.65264479980469,5.10922634277344
4.60423032690408,0.454898315429687,8.60954916992188,5.26724365234375
4.60869415996614,0.454898315429687,8.64306799316406,5.13795676269531
4.61315799302821,0.45968671875,8.6191259765625,5.16668718261719
4.61762182609028,0.47884033203125,8.62870278320312,5.10443793945312
4.61983983856858,0.47884033203125,8.65264479980469,5.133168359375
4.62205785104687,0.44053310546875,8.62391437988281,5.18105239257812
4.62427586352517,0.474051928710937,8.59997236328125,5.16189877929687
4.62649606209288,0.430956298828125,8.60954916992188,5.26245524902344
4.62871626066059,0.464475122070312,8.59039555664062,5.20499440917969
4.6309364592283,0.407014282226562,8.58081875,5.19062919921875
4.63308593101649,0.4213794921875,8.59997236328125,5.23372482910156
4.63523540280469,0.435744702148437,8.59518395996094,5.21457121582031
4.63738487459289,0.488417138671875,8.59039555664062,5.2480900390625
4.64074961612934,0.450109912109375,8.58560715332031,5.09964953613281
4.6441143576658,0.445321508789062,8.59997236328125,5.12837995605469
4.64747909920226,0.450109912109375,8.57603034667969,5.20020600585937
4.64974190540885,0.47884033203125,8.59997236328125,5.24330163574219
4.65200471161545,0.411802685546875,8.59039555664062,5.2480900390625
4.65426751782204,0.411802685546875,8.63349118652344,5.14274516601562
4.65653033037629,0.454898315429687,8.57603034667969,5.14753356933594
4.65879314293055,0.464475122070312,8.56645354003906,5.18105239257812
4.6610559554848,0.450109912109375,8.59039555664062,5.2097828125
4.66338964933245,0.44053310546875,8.59997236328125,5.22414802246094
4.66572334318011,0.454898315429687,8.58560715332031,5.18105239257812
4.66805703702776,0.430956298828125,8.60476076660156,5.23851323242187
4.67028137090363,0.416591088867187,8.62870278320312,5.1714755859375
4.6725057047795,0.445321508789062,8.62391437988281,5.22893642578125
4.67473003865537,0.454898315429687,8.62870278320312,5.15711037597656
4.67684207820615,0.464475122070312,8.64785639648438,5.14753356933594
4.67895411775693,0.47884033203125,8.64785639648438,5.15232197265625
4.68106615730771,0.474051928710937,8.64306799316406,5.19541760253906
4.68727155856639,0.483628735351562,8.57603034667969,5.20499440917969
4.69347695982508,0.502782348632812,8.59039555664062,5.19541760253906
4.69968236108376,0.454898315429687,8.5425115234375,5.18105239257812
4.70168146910242,0.469263525390625,8.53293471679688,5.17626398925781
4.70368057712109,0.464475122070312,8.58560715332031,5.2480900390625
4.70567968513975,0.483628735351562,8.60954916992188,5.14274516601562
4.70764065166536,0.474051928710937,8.59997236328125,5.13795676269531
4.70960161819097,0.44053310546875,8.59997236328125,5.16189877929687
4.71156258471657,0.47884033203125,8.61433757324219,5.14753356933594
4.71352198526996,0.469263525390625,8.59518395996094,5.16668718261719
4.71548138582334,0.435744702148437,8.60954916992188,5.1714755859375
4.71744078637672,0.450109912109375,8.62870278320312,5.18584079589844
4.72047103304013,0.47884033203125,8.59039555664062,5.14274516601562
4.72350127970354,0.45968671875,8.60476076660156,5.16668718261719
4.72653152636694,0.474051928710937,8.62870278320312,5.17626398925781
4.72856776622154,0.483628735351562,8.62870278320312,5.19541760253906
4.73060400607615,0.474051928710937,8.61433757324219,5.19541760253906
4.73264024593075,0.4979939453125,8.61433757324219,5.17626398925781
4.73467992762562,0.450109912109375,8.64785639648438,5.21457121582031
4.7367196093205,0.469263525390625,8.64306799316406,5.20020600585937
4.73875929101538,0.450109912109375,8.64785639648438,5.21457121582031
4.74080173388647,0.45968671875,8.63827958984375,5.20020600585937
4.74284417675757,0.454898315429687,8.6191259765625,5.15711037597656
4.74488661962866,0.445321508789062,8.65264479980469,5.20499440917969
4.74693057546633,0.493205541992187,8.62391437988281,5.13795676269531
4.748974531304,0.435744702148437,8.62870278320312,5.14753356933594
4.75101848714167,0.450109912109375,8.56166513671875,5.1714755859375
4.75310973529706,0.435744702148437,8.61433757324219,5.16668718261719
4.75520098345244,0.435744702148437,8.62391437988281,5.21935961914062
4.75729223160782,0.435744702148437,8.64306799316406,5.14274516601562
4.75940021695938,0.450109912109375,8.61433757324219,5.15711037597656
4.76150820231095,0.483628735351562,8.64306799316406,5.11880314941406
4.76361618766251,0.435744702148437,8.657433203125,5.22893642578125
4.76572775547935,0.450109912109375,8.62870278320312,5.14274516601562
4.76783932329619,0.469263525390625,8.65264479980469,5.14753356933594
4.76995089111302,0.483628735351562,8.60476076660156,5.16668718261719
4.77205906754532,0.526724365234375,8.64785639648438,5.17626398925781
4.77416724397761,0.550666381835937,8.60476076660156,5.17626398925781
4.7762754204099,0.536301171875,8.62870278320312,5.21457121582031
4.7784192840438,0.51714755859375,8.68137521972656,5.22414802246094
4.78056314767769,0.507570751953125,8.61433757324219,5.19541760253906
4.78270701131159,0.488417138671875,8.61433757324219,5.19062919921875
4.78483406005834,0.474051928710937,8.63349118652344,5.17626398925781
4.78696110880508,0.483628735351562,8.62870278320312,5.16668718261719
4.78908815755183,0.474051928710937,8.62391437988281,5.1714755859375
4.79120202669245,0.483628735351562,8.63827958984375,5.13795676269531
4.79331589583308,0.502782348632812,8.6191259765625,5.16189877929687
4.7954297649737,0.493205541992187,8.62391437988281,5.16189877929687
4.79769071375842,0.469263525390625,8.63827958984375,5.19541760253906
4.79995166254315,0.464475122070312,8.62870278320312,5.1714755859375
4.80221261132787,0.464475122070312,8.63827958984375,5.1714755859375
4.80447737673586,0.445321508789062,8.66222160644531,5.17626398925781
4.80674214214384,0.4979939453125,8.60476076660156,5.20020600585937
4.80900690755183,0.44053310546875,8.67179841308594,5.12837995605469
4.81127315776884,0.469263525390625,8.65264479980469,5.23851323242187
4.81353940798586,0.502782348632812,8.65264479980469,5.16668718261719
4.81580565820287,0.469263525390625,8.66701000976562,5.21935961914062
4.81807354318551,0.488417138671875,8.68616362304688,5.14753356933594
4.82034142816815,0.47884033203125,8.68137521972656,5.16189877929687
4.82260931315079,0.483628735351562,8.657433203125,5.21457121582031
4.82481796679662,0.483628735351562,8.68616362304688,5.15711037597656
4.82702662044245,0.488417138671875,8.66701000976562,5.23372482910156
4.82923527408829,0.45968671875,8.64306799316406,5.20020600585937
4.83144183843291,0.4979939453125,8.70531723632812,5.2097828125
4.83364840277752,0.45968671875,8.64306799316406,5.18105239257812
4.83585496712214,0.469263525390625,8.67658681640625,5.2097828125
4.83807367491294,0.488417138671875,8.65264479980469,5.20020600585937
4.84029238270374,0.474051928710937,8.64306799316406,5.19062919921875
4.84251109049454,0.464475122070312,8.69095202636719,5.2097828125
4.85132541823976,0.493205541992187,8.59518395996094,5.20020600585937
4.86013974598498,0.4979939453125,8.59518395996094,5.18105239257812
4.8689540737302,0.469263525390625,8.59039555664062,5.16668718261719
4.87114331146892,0.493205541992187,8.56166513671875,5.14274516601562
4.87333254920763,0.507570751953125,8.57603034667969,5.16668718261719
4.87552178694635,0.483628735351562,8.53772312011719,5.21935961914062
4.87771163514513,0.474051928710937,8.52814631347656,5.16189877929687
4.87990148334391,0.435744702148437,8.59039555664062,5.18584079589844
4.88209133154269,0.469263525390625,8.57603034667969,5.16668718261719
4.88428108870415,0.450109912109375,8.60476076660156,5.14753356933594
4.88647084586561,0.45968671875,8.61433757324219,5.13795676269531
4.88866060302707,0.483628735351562,8.58081875,5.21457121582031
4.89078456385607,0.45968671875,8.58560715332031,5.19541760253906
4.89290852468507,0.430956298828125,8.59518395996094,5.20499440917969
4.89503248551406,0.411802685546875,8.57603034667969,5.14274516601562
4.89721733262778,0.416591088867187,8.6191259765625,5.1714755859375
4.89940217974149,0.4213794921875,8.62391437988281,5.18584079589844
4.90158702685521,0.426167895507812,8.58081875,5.15232197265625
4.90377406211997,0.397437475585937,8.59997236328125,5.20020600585937
4.90596109738472,0.44053310546875,8.61433757324219,5.24330163574219
4.90814813264948,0.4213794921875,8.57603034667969,5.21935961914062
4.91033592333959,0.435744702148437,8.64785639648438,5.17626398925781
4.9125237140297,0.435744702148437,8.65264479980469,5.19541760253906
4.9147115047198,0.411802685546875,8.57603034667969,5.16668718261719
4.91690477555314,0.40222587890625,8.65264479980469,5.15711037597656
4.91909804638647,0.426167895507812,8.59997236328125,5.19541760253906
4.92129131721981,0.435744702148437,8.58560715332031,5.21935961914062
4.92341833338734,0.4213794921875,8.61433757324219,5.19062919921875
4.92554534955488,0.426167895507812,8.60954916992188,5.22893642578125
4.92767236572241,0.40222587890625,8.57124194335938,5.21935961914062
4.92985656146894,0.45968671875,8.60476076660156,5.133168359375
4.93204075721547,0.450109912109375,8.60476076660156,5.14753356933594
4.93422495296199,0.454898315429687,8.59518395996094,5.25766684570312
4.93641014295765,0.45968671875,8.60954916992188,5.19541760253906
4.93859533295331,0.474051928710937,8.65264479980469,5.14274516601562
4.94078052294897,0.435744702148437,8.66222160644531,5.24330163574219
4.94296573117379,0.435744702148437,8.59039555664062,5.19541760253906
4.94515093939862,0.469263525390625,8.62391437988281,5.19541760253906
4.94733614762344,0.450109912109375,8.63349118652344,5.16668718261719
4.94952142648629,0.430956298828125,8.58560715332031,5.16668718261719
4.95170670534914,0.430956298828125,8.66701000976562,5.2097828125
4.95389198421199,0.4979939453125,8.657433203125,5.21457121582031
4.95601000059654,0.407014282226562,8.62391437988281,5.21935961914062
4.95812801698108,0.445321508789062,8.66701000976562,5.16189877929687
4.96024603336563,0.502782348632812,8.657433203125,5.11880314941406
4.96242701980226,0.469263525390625,8.657433203125,5.15232197265625
4.9646080062389,0.430956298828125,8.63827958984375,5.133168359375
4.96678899267553,0.4979939453125,8.66222160644531,5.19541760253906
4.96897173225886,0.493205541992187,8.657433203125,5.15232197265625
4.97115447184219,0.488417138671875,8.63349118652344,5.16189877929687
4.97333721142553,0.464475122070312,8.64306799316406,5.08049592285156
4.97552385042292,0.4979939453125,8.67179841308594,5.20020600585937
4.97771048942032,0.483628735351562,8.62870278320312,5.19062919921875
4.97989712841771,0.435744702148437,8.67179841308594,5.18105239257812
4.98208561268421,0.469263525390625,8.67658681640625,5.14753356933594
4.9842740969507,0.483628735351562,8.67179841308594,5.15711037597656
4.98646258121719,0.445321508789062,8.68137521972656,5.19541760253906
4.98860870361303,0.474051928710937,8.64306799316406,5.18584079589844
4.99075482600886,0.464475122070312,8.657433203125,5.18105239257812
4.99290094840469,0.435744702148437,8.65264479980469,5.18584079589844
4.99508533512344,0.454898315429687,8.62391437988281,5.13795676269531
4.99726972184219,0.430956298828125,8.657433203125,5.12359155273437
4.99945410856094,0.44053310546875,8.65264479980469,5.12837995605469
5.00163912809218,0.474051928710937,8.66222160644531,5.14753356933594
5.00382414762343,0.464475122070312,8.657433203125,5.133168359375
5.00600916715468,0.445321508789062,8.62870278320312,5.14753356933594
5.00818982807048,0.469263525390625,8.59518395996094,5.11401474609375
5.01037048898628,0.430956298828125,8.67179841308594,5.15711037597656
5.01255114990208,0.469263525390625,8.64785639648438,5.16189877929687
5.01473044471545,0.45968671875,8.66222160644531,5.17626398925781
5.01690973952881,0.45968671875,8.60954916992188,5.11401474609375
5.01908903434218,0.474051928710937,8.63349118652344,5.16668718261719
5.02120865359131,0.469263525390625,8.65264479980469,5.15232197265625
5.02332827284044,0.469263525390625,8.64306799316406,5.15711037597656
5.02544789208957,0.464475122070312,8.63349118652344,5.20020600585937
5.0276320472545,0.44053310546875,8.65264479980469,5.1714755859375
5.02981620241943,0.469263525390625,8.65264479980469,5.16668718261719
5.03200035758436,0.488417138671875,8.68616362304688,5.16189877929687
5.03418841010172,0.450109912109375,8.657433203125,5.18105239257812
5.03637646261908,0.469263525390625,8.657433203125,5.15711037597656
5.03856451513644,0.411802685546875,8.66701000976562,5.14274516601562
5.04082252099581,0.454898315429687,8.61433757324219,5.11880314941406
5.04308052685519,0.430956298828125,8.62870278320312,5.133168359375
5.04533853271456,0.469263525390625,8.65264479980469,5.15232197265625
5.04754867453314,0.483628735351562,8.59039555664062,5.18105239257812
5.04975881635172,0.426167895507812,8.59997236328125,5.18105239257812
5.0519689581703,0.426167895507812,8.64785639648438,5.15711037597656
5.05417938840034,0.450109912109375,8.61433757324219,5.10922634277344
5.05638981863038,0.426167895507812,8.63349118652344,5.16668718261719
5.05860024886041,0.4213794921875,8.59039555664062,5.18105239257812
5.06081283837864,0.474051928710937,8.61433757324219,5.14274516601562
5.06302542789688,0.483628735351562,8.61433757324219,5.12359155273437
5.06523801741511,0.488417138671875,8.60954916992188,5.22893642578125
5.06745182090903,0.51714755859375,8.64785639648438,5.21457121582031
5.06966562440295,0.47884033203125,8.60954916992188,5.1714755859375
5.07187942789687,0.47884033203125,8.64306799316406,5.19062919921875
5.07409503358263,0.502782348632812,8.58081875,5.22414802246094
5.0763106392684,0.521935961914062,8.63349118652344,5.16668718261719
5.07852624495416,0.464475122070312,8.62870278320312,5.1714755859375
5.08067712852621,0.469263525390625,8.60476076660156,5.23851323242187
5.08282801209826,0.483628735351562,8.63349118652344,5.21935961914062
5.08497889567031,0.483628735351562,8.64785639648438,5.22414802246094
5.08944405843073,0.488417138671875,8.6191259765625,5.15711037597656
5.09390922119115,0.4979939453125,8.6191259765625,5.20499440917969
5.09837438395156,0.51714755859375,8.56645354003906,5.20020600585937
5.10063562223281,0.526724365234375,8.60476076660156,5.20499440917969
5.10289686051406,0.512359155273437,8.61433757324219,5.19541760253906
5.10515809879531,0.488417138671875,8.64306799316406,5.17626398925781
5.10741964784045,0.51714755859375,8.58560715332031,5.19541760253906
5.10968119688559,0.502782348632812,8.58081875,5.19062919921875
5.11194274593073,0.474051928710937,8.6191259765625,5.15711037597656
5.11413808089167,0.502782348632812,8.59997236328125,5.19541760253906
5.1163334158526,0.488417138671875,8.6191259765625,5.10922634277344
5.11852875081354,0.502782348632812,8.63349118652344,5.15711037597656
5.1207190050453,0.502782348632812,8.61433757324219,5.09964953613281
5.12290925927707,0.47884033203125,8.59518395996094,5.17626398925781
5.12509951350884,0.488417138671875,8.59039555664062,5.18105239257812
5.12728968961561,0.47884033203125,8.62870278320312,5.18105239257812
5.12947986572239,0.45968671875,8.59039555664062,5.26245524902344
5.13167004182916,0.450109912109375,8.59518395996094,5.23372482910156
5.13829800244114,0.435744702148437,8.60476076660156,5.15232197265625
5.14492596305312,0.44053310546875,8.62870278320312,5.2097828125
5.1515539236651,0.502782348632812,8.58081875,5.15232197265625
5.15382683067465,0.454898315429687,8.63827958984375,5.20499440917969
5.1560997376842,0.483628735351562,8.59997236328125,5.20020600585937
5.15837264469375,0.47884033203125,8.63349118652344,5.15711037597656
5.16064793353924,0.450109912109375,8.63827958984375,5.21457121582031
5.16292322238473,0.493205541992187,8.61433757324219,5.13795676269531
5.16519851123021,0.454898315429687,8.57603034667969,5.1714755859375
5.16747246652535,0.445321508789062,8.6191259765625,5.14274516601562
5.16974642182049,0.512359155273437,8.60476076660156,5.15232197265625
5.17202037711563,0.521935961914062,8.59997236328125,5.19062919921875
5.17429413915989,0.507570751953125,8.6191259765625,5.18105239257812
5.17656790120416,0.469263525390625,8.60954916992188,5.19062919921875
5.17884166324843,0.4979939453125,8.62870278320312,5.25287844238281
5.18105733121718,0.51714755859375,8.60954916992188,5.133168359375
5.18327299918593,0.55545478515625,8.63349118652344,5.14753356933594
5.18548866715468,0.55545478515625,8.60476076660156,5.15232197265625
5.18770458837864,0.55545478515625,8.60476076660156,5.1714755859375
5.1899205096026,0.483628735351562,8.59997236328125,5.11880314941406
5.19213643082656,0.47884033203125,8.62391437988281,5.14753356933594
5.19435299473715,0.507570751953125,8.62870278320312,5.15711037597656
5.19656955864774,0.507570751953125,8.6191259765625,5.18584079589844
5.19878612255833,0.512359155273437,8.59518395996094,5.11401474609375
5.2032778110349,0.426167895507812,8.57124194335938,5.133168359375
5.20776949951146,0.483628735351562,8.62391437988281,5.20499440917969
5.21226118798803,0.454898315429687,8.58560715332031,5.20020600585937
5.21445276329185,0.483628735351562,8.59039555664062,5.2097828125
5.21664433859567,0.464475122070312,8.59997236328125,5.16668718261719
5.21883591389949,0.454898315429687,8.6191259765625,5.14274516601562
5.22102694905574,0.45968671875,8.57603034667969,5.18105239257812
5.22321798421199,0.483628735351562,8.57603034667969,5.15711037597656
5.22540901936824,0.454898315429687,8.57124194335938,5.19062919921875
5.22759627587866,0.450109912109375,8.57603034667969,5.18584079589844
5.22978353238907,0.445321508789062,8.60476076660156,5.17626398925781
5.23197078889948,0.44053310546875,8.59997236328125,5.17626398925781
5.23416193516684,0.44053310546875,8.55687673339844,5.18584079589844
5.2363530814342,0.4213794921875,8.60954916992188,5.15232197265625
5.23854422770156,0.44053310546875,8.62870278320312,5.10443793945312
5.24074748811823,0.44053310546875,8.63349118652344,5.18584079589844
5.2429507485349,0.445321508789062,8.64306799316406,5.11880314941406
5.24515400895157,0.426167895507812,8.62391437988281,5.16668718261719
5.24736085736737,0.450109912109375,8.64785639648438,5.19062919921875
5.24956770578316,0.469263525390625,8.657433203125,5.15711037597656
5.25177455419896,0.469263525390625,8.63827958984375,5.16668718261719
5.25398306830486,0.469263525390625,8.62870278320312,5.1714755859375
5.25619158241076,0.450109912109375,8.64785639648438,5.19062919921875
5.25840009651666,0.445321508789062,8.62391437988281,5.19062919921875
5.26061027761476,0.474051928710937,8.61433757324219,5.11880314941406
5.26282045871285,0.464475122070312,8.61433757324219,5.17626398925781
5.26503063981094,0.464475122070312,8.6191259765625,5.16189877929687
5.26743829313125,0.454898315429687,8.64306799316406,5.22414802246094
5.26984594645157,0.426167895507812,8.65264479980469,5.18584079589844
5.27225359977188,0.430956298828125,8.67179841308594,5.16668718261719
5.27462985047718,0.454898315429687,8.6191259765625,5.14753356933594
5.27700610118247,0.435744702148437,8.61433757324219,5.15711037597656
5.27938235188777,0.407014282226562,8.59997236328125,5.18105239257812
5.28179412879748,0.474051928710937,8.58081875,5.13795676269531
5.2842059057072,0.45968671875,8.6191259765625,5.20020600585937
5.28661768261692,0.40222587890625,8.64306799316406,5.20499440917969
5.2891033525388,0.445321508789062,8.58560715332031,5.20020600585937
5.29158902246068,0.469263525390625,8.58081875,5.16668718261719
5.29407469238256,0.44053310546875,8.61433757324219,5.19062919921875
5.29655993359349,0.435744702148437,8.59518395996094,5.19062919921875
5.29904517480443,0.469263525390625,8.61433757324219,5.21935961914062
5.30153041601537,0.445321508789062,8.62391437988281,5.20020600585937
5.30395704915339,0.469263525390625,8.58560715332031,5.15711037597656
5.30638368229141,0.469263525390625,8.57603034667969,5.20020600585937
5.30881031542943,0.507570751953125,8.58081875,5.21457121582031
5.31121927918811,0.45968671875,8.58081875,5.16189877929687
5.31362824294678,0.411802685546875,8.56645354003906,5.22893642578125
5.31603720670546,0.435744702148437,8.59518395996094,5.17626398925781
5.32904201820178,0.435744702148437,8.64785639648438,5.18584079589844
5.34204682969809,0.464475122070312,8.68137521972656,5.15232197265625
5.3550516411944,0.4213794921875,8.67658681640625,5.15232197265625
5.36181732115318,0.469263525390625,8.68137521972656,5.133168359375
5.36858300111195,0.474051928710937,8.66222160644531,5.14753356933594
5.37534868107073,0.464475122070312,8.66701000976562,5.12359155273437
5.38220543349857,0.397437475585937,8.65264479980469,5.11880314941406
5.38906218592641,0.397437475585937,8.62870278320312,5.0948611328125
5.39591893835425,0.416591088867187,8.6191259765625,5.10922634277344
5.39821259111846,0.392649072265625,8.61433757324219,5.10922634277344
5.40050624388267,0.40222587890625,8.60954916992188,5.12837995605469
5.40279989664689,0.354341845703125,8.60954916992188,5.133168359375
5.40506987635609,0.392649072265625,8.59997236328125,5.17626398925781
5.40733985606529,0.40222587890625,8.60954916992188,5.14274516601562
5.4096098357745,0.445321508789062,8.62870278320312,5.12837995605469
5.41196442985001,0.435744702148437,8.6191259765625,5.14274516601562
5.41431902392553,0.426167895507812,8.64306799316406,5.14753356933594
5.41667361800105,0.387860668945312,8.63827958984375,5.16668718261719
5.41902794156876,0.411802685546875,8.60476076660156,5.14274516601562
5.42138226513647,0.416591088867187,8.59997236328125,5.16189877929687
5.42373658870418,0.464475122070312,8.63827958984375,5.10443793945312
5.42609095643422,0.445321508789062,8.63827958984375,5.12837995605469
5.42844532416425,0.411802685546875,8.63349118652344,5.1714755859375
5.43079969189429,0.407014282226562,8.59518395996094,5.05655390625
5.43310551226104,0.445321508789062,8.61433757324219,5.14274516601562
5.43541133262779,0.445321508789062,8.65264479980469,5.16189877929687
5.43771715299455,0.445321508789062,8.62870278320312,5.18584079589844
5.44339562380618,0.430956298828125,8.67658681640625,5.15711037597656
5.44907409461781,0.407014282226562,8.62391437988281,5.2097828125
5.45475256542944,0.430956298828125,8.65264479980469,5.14753356933594
5.45701797091989,0.383072265625,8.69095202636719,5.12837995605469
5.45928337641034,0.430956298828125,8.69095202636719,5.08049592285156
5.46154878190079,0.430956298828125,8.6957404296875,5.06134230957031
5.46381498556833,0.426167895507812,8.67658681640625,5.07570751953125
5.46608118923586,0.392649072265625,8.68137521972656,5.0948611328125
5.4683473929034,0.383072265625,8.67179841308594,5.15232197265625
5.47293991265166,0.411802685546875,8.66701000976562,5.14274516601562
5.47753243239992,0.435744702148437,8.66701000976562,5.14274516601562
5.48212495214819,0.416591088867187,8.6957404296875,5.13795676269531
5.4845071617836,0.445321508789062,8.67179841308594,5.14753356933594
5.48688937141901,0.411802685546875,8.68616362304688,5.133168359375
5.48927158105443,0.426167895507812,8.67179841308594,5.15232197265625
5.49157397075712,0.430956298828125,8.69095202636719,5.12359155273437
5.49387636045981,0.407014282226562,8.66701000976562,5.11880314941406
5.4961787501625,0.44053310546875,8.66222160644531,5.16668718261719
5.4984698914928,0.426167895507812,8.62870278320312,5.12359155273437
5.50076103282309,0.426167895507812,8.6957404296875,5.14274516601562
5.50305217415339,0.435744702148437,8.62391437988281,5.16189877929687
5.50534483078316,0.435744702148437,8.62870278320312,5.17626398925781
5.50763748741294,0.430956298828125,8.67179841308594,5.14753356933594
5.50993014404271,0.44053310546875,8.64785639648438,5.13795676269531
5.5121889195961,0.445321508789062,8.62391437988281,5.15711037597656
5.51444769514949,0.397437475585937,8.63349118652344,5.12837995605469
5.51670647070287,0.426167895507812,8.63827958984375,5.13795676269531
5.51893050260391,0.435744702148437,8.67658681640625,5.10443793945312
5.52115453450495,0.392649072265625,8.6191259765625,5.15232197265625
5.523378566406,0.4213794921875,8.63349118652344,5.20499440917969
5.52560305957006,0.450109912109375,8.59518395996094,5.13795676269531
5.52782755273412,0.411802685546875,8.62870278320312,5.16668718261719
5.53005204589819,0.430956298828125,8.59997236328125,5.19062919921875
5.5345507944876,0.454898315429687,8.59997236328125,5.12837995605469
5.53904954307701,0.464475122070312,8.60476076660156,5.12837995605469
5.54354829166642,0.464475122070312,8.61433757324219,5.10443793945312
5.54580745269073,0.45968671875,8.63349118652344,5.18105239257812
5.54806661371503,0.488417138671875,8.63349118652344,5.11880314941406
5.55032577473933,0.488417138671875,8.64306799316406,5.18584079589844
5.55258572509741,0.464475122070312,8.62870278320312,5.15232197265625
5.55484567545548,0.464475122070312,8.61433757324219,5.133168359375
5.55710562581356,0.435744702148437,8.64785639648438,5.14753356933594
5.55936543098934,0.507570751953125,8.63349118652344,5.18584079589844
5.56162523616512,0.483628735351562,8.63827958984375,5.11880314941406
5.5638850413409,0.469263525390625,8.62391437988281,5.09007272949219
5.56614473307267,0.474051928710937,8.657433203125,5.12837995605469
5.56840442480444,0.474051928710937,8.64306799316406,5.11880314941406
5.57066411653621,0.469263525390625,8.6957404296875,5.15232197265625
5.57305264027211,0.464475122070312,8.64785639648438,5.09007272949219
5.57544116400801,0.454898315429687,8.6957404296875,5.07570751953125
5.5778296877439,0.464475122070312,8.67179841308594,5.14274516601562
5.58017080080814,0.445321508789062,8.71010563964844,5.133168359375
5.58251191387238,0.454898315429687,8.70052883300781,5.133168359375
5.58485302693662,0.47884033203125,8.70531723632812,5.0948611328125
5.58719189141144,0.493205541992187,8.70052883300781,5.11880314941406
5.58953075588626,0.493205541992187,8.70052883300781,5.07570751953125
5.59186962036108,0.483628735351562,8.72447084960938,5.10922634277344
5.59420622365969,0.430956298828125,8.74841286621094,5.16668718261719
5.59654282695831,0.454898315429687,8.74841286621094,5.15232197265625
5.59887943025692,0.469263525390625,8.70531723632812,5.10922634277344
5.60121440215362,0.45968671875,8.72925925292969,5.16189877929687
5.60354937405032,0.435744702148437,8.73883605957031,5.11880314941406
5.60588434594702,0.488417138671875,8.71968244628906,5.07570751953125
5.60821765356421,0.507570751953125,8.73404765625,5.14753356933594
5.6105509611814,0.4979939453125,8.75320126953125,5.06134230957031
5.61288426879858,0.464475122070312,8.73883605957031,5.07091911621094
5.61980766213626,0.47884033203125,8.67179841308594,5.0948611328125
5.62673105547393,0.392649072265625,8.657433203125,5.09964953613281
5.6336544488116,0.411802685546875,8.59518395996094,5.12359155273437
5.63597460289146,0.426167895507812,8.63827958984375,5.133168359375
5.63829475697133,0.4213794921875,8.66222160644531,5.15232197265625
5.64061491105119,0.426167895507812,8.65264479980469,5.10443793945312
5.64288943882897,0.450109912109375,8.64785639648438,5.10443793945312
5.64516396660675,0.407014282226562,8.62391437988281,5.10443793945312
5.64743849438453,0.44053310546875,8.63349118652344,5.10922634277344
5.64971522539582,0.44053310546875,8.64306799316406,5.14274516601562
5.6519919564071,0.4979939453125,8.63827958984375,5.13795676269531
5.65426868741838,0.45968671875,8.61433757324219,5.09964953613281
5.65654773895919,0.45968671875,8.59997236328125,5.13795676269531
5.65882679049999,0.450109912109375,8.59518395996094,5.17626398925781
5.66110584204079,0.474051928710937,8.60476076660156,5.0948611328125
5.66329005276127,0.488417138671875,8.56166513671875,5.12837995605469
5.66547426348176,0.488417138671875,8.62870278320312,5.13795676269531
5.66765847420224,0.488417138671875,8.56645354003906,5.0948611328125
5.6698389922144,0.493205541992187,8.56645354003906,5.11880314941406
5.67201951022655,0.469263525390625,8.56645354003906,5.13795676269531
5.6742000282387,0.474051928710937,8.60476076660156,5.10922634277344
5.67645297756596,0.44053310546875,8.53772312011719,5.133168359375
5.67870592689322,0.426167895507812,8.56166513671875,5.08049592285156
5.68095887622048,0.454898315429687,8.57124194335938,5.15711037597656
5.68321103149391,0.411802685546875,8.56645354003906,5.12837995605469
5.68546318676734,0.430956298828125,8.55687673339844,5.15711037597656
5.68771534204078,0.483628735351562,8.5425115234375,5.11401474609375
5.68996497148956,0.464475122070312,8.54729992675781,5.14274516601562
5.69221460093835,0.474051928710937,8.52335791015625,5.17626398925781
5.69446423038713,0.469263525390625,8.55687673339844,5.14753356933594
5.69671222854251,0.4213794921875,8.55208833007812,5.22414802246094
5.6989602266979,0.469263525390625,8.60954916992188,5.15711037597656
5.70120822485328,0.44053310546875,8.53293471679688,5.13795676269531
5.70344338479252,0.454898315429687,8.60476076660156,5.11880314941406
5.70567854473175,0.45968671875,8.59039555664062,5.1714755859375
5.70791370467099,0.445321508789062,8.56166513671875,5.10922634277344
5.71014259234305,0.430956298828125,8.59039555664062,5.22414802246094
5.71237148001511,0.469263525390625,8.6191259765625,5.12837995605469
5.71460036768718,0.454898315429687,8.58560715332031,5.21457121582031
5.71682015593588,0.426167895507812,8.56645354003906,5.15232197265625
5.71903994418458,0.445321508789062,8.59039555664062,5.18584079589844
5.72125973243328,0.392649072265625,8.55687673339844,5.11880314941406
5.72465040270392,0.416591088867187,8.58560715332031,5.15711037597656
5.72804107297457,0.430956298828125,8.55687673339844,5.0948611328125
5.73143174324522,0.416591088867187,8.59039555664062,5.15711037597656
5.73369645244661,0.40222587890625,8.62870278320312,5.19541760253906
5.735961161648,0.4213794921875,8.58560715332031,5.16189877929687
5.73822587084938,0.474051928710937,8.61433757324219,5.13795676269531
5.74048765264192,0.407014282226562,8.61433757324219,5.11401474609375
5.74274943443446,0.450109912109375,8.62391437988281,5.23372482910156
5.745011216227,0.416591088867187,8.63349118652344,5.15232197265625
5.74727264992926,0.445321508789062,8.62391437988281,5.13795676269531
5.74953408363151,0.426167895507812,8.64785639648438,5.15711037597656
5.75179551733377,0.488417138671875,8.65264479980469,5.2097828125
5.75405685224045,0.47884033203125,8.66701000976562,5.09964953613281
5.75631818714713,0.4979939453125,8.63349118652344,5.15232197265625
5.75857952205381,0.474051928710937,8.67658681640625,5.19062919921875
5.76087747561284,0.464475122070312,8.68616362304688,5.21935961914062
5.76317542917187,0.474051928710937,8.64306799316406,5.21457121582031
5.7654733827309,0.474051928710937,8.62870278320312,5.19541760253906
5.76774362019835,0.502782348632812,8.62870278320312,5.14753356933594
5.77001385766579,0.531512768554687,8.68137521972656,5.21457121582031
5.77228409513324,0.488417138671875,8.657433203125,5.10922634277344
5.77455398651779,0.464475122070312,8.63349118652344,5.2097828125
5.77682387790234,0.521935961914062,8.69095202636719,5.12837995605469
5.77909376928689,0.469263525390625,8.72447084960938,5.13795676269531
5.78136075116623,0.474051928710937,8.69095202636719,5.15232197265625
5.78362773304556,0.474051928710937,8.71010563964844,5.13795676269531
5.7858947149249,0.435744702148437,8.6957404296875,5.12837995605469
5.78815793481422,0.474051928710937,8.68616362304688,5.11401474609375
5.79042115470355,0.45968671875,8.68616362304688,5.08049592285156
5.79268437459287,0.45968671875,8.69095202636719,5.08049592285156
5.79505773689756,0.474051928710937,8.69095202636719,5.13795676269531
5.79743109920225,0.474051928710937,8.68137521972656,5.14274516601562
5.79980446150694,0.474051928710937,8.68137521972656,5.09964953613281
5.80214973456466,0.435744702148437,8.68616362304688,5.0948611328125
5.80449500762239,0.454898315429687,8.67179841308594,5.12359155273437
5.80684028068011,0.454898315429687,8.69095202636719,5.12359155273437
5.80918538403298,0.474051928710937,8.64785639648438,5.0948611328125
5.81153048738584,0.44053310546875,8.6191259765625,5.10922634277344
5.81387559073871,0.430956298828125,8.65264479980469,5.09964953613281
5.81622078800434,0.435744702148437,8.63349118652344,5.11401474609375
5.81856598526996,0.40222587890625,8.66222160644531,5.1714755859375
5.82091118253558,0.4213794921875,8.69095202636719,5.19541760253906
5.82325636808246,0.483628735351562,8.66222160644531,5.11401474609375
5.82560155362934,0.454898315429687,8.63349118652344,5.11880314941406
5.82794673917621,0.435744702148437,8.59518395996094,5.13795676269531
5.83025896025911,0.474051928710937,8.60954916992188,5.10922634277344
5.832571181342,0.4213794921875,8.63827958984375,5.12359155273437
5.8348834024249,0.454898315429687,8.63827958984375,5.12837995605469
5.84182056702993,0.44053310546875,8.64785639648438,5.12837995605469
5.84875773163497,0.430956298828125,8.6191259765625,5.13795676269531
5.85569489624,0.44053310546875,8.60476076660156,5.18584079589844
5.85801471579295,0.435744702148437,8.6191259765625,5.16189877929687
5.8603345353459,0.416591088867187,8.63349118652344,5.09964953613281
5.86265435489885,0.392649072265625,8.62391437988281,5.09007272949219
5.86501949845354,0.450109912109375,8.67658681640625,5.14753356933594
5.86738464200822,0.454898315429687,8.67658681640625,5.16189877929687
5.86974978556291,0.45968671875,8.70531723632812,5.14274516601562
5.87209489390709,0.493205541992187,8.71010563964844,5.10443793945312
5.87444000225127,0.502782348632812,8.71489404296875,5.133168359375
5.87678511059546,0.488417138671875,8.73883605957031,5.09007272949219
5.87912958119008,0.483628735351562,8.74841286621094,5.09007272949219
5.8814740517847,0.51714755859375,8.74362446289062,5.14274516601562
5.88381852237931,0.502782348632812,8.74841286621094,5.05176550292969
5.88616294653296,0.512359155273437,8.74362446289062,5.06613071289062
5.88850737068661,0.469263525390625,8.73404765625,5.09007272949219
5.89085179484025,0.507570751953125,8.74362446289062,5.10443793945312
5.89319617255293,0.502782348632812,8.79629689941406,5.0948611328125
5.8955405502656,0.493205541992187,8.73883605957031,5.16668718261719
5.89788492797828,0.474051928710937,8.71010563964844,5.12359155273437
5.90019611336239,0.493205541992187,8.70531723632812,5.12837995605469
5.90250729874651,0.488417138671875,8.72925925292969,5.15232197265625
5.90481848413062,0.507570751953125,8.72925925292969,5.16189877929687
5.90715958281769,0.445321508789062,8.69095202636719,5.15232197265625
5.90950068150476,0.464475122070312,8.70052883300781,5.19541760253906
5.91184178019182,0.45968671875,8.68616362304688,5.16668718261719
5.9152852013344,0.47884033203125,8.70052883300781,5.133168359375
5.91872862247697,0.44053310546875,8.64306799316406,5.14274516601562
5.92217204361955,0.469263525390625,8.66222160644531,5.10443793945312
5.92442455262563,0.493205541992187,8.68616362304688,5.08528432617187
5.9266770616317,0.445321508789062,8.64785639648438,5.14753356933594
5.92892957063777,0.51714755859375,8.69095202636719,5.11401474609375
5.93118066688343,0.493205541992187,8.70052883300781,5.08528432617187
5.93343176312909,0.469263525390625,8.66222160644531,5.08528432617187
5.93568285937475,0.493205541992187,8.68616362304688,5.09964953613281
5.93793168934436,0.531512768554687,8.67658681640625,5.0948611328125
5.94018051931398,0.507570751953125,8.66222160644531,5.14753356933594
5.9424293492836,0.502782348632812,8.68137521972656,5.10443793945312
5.94467661241294,0.4979939453125,8.64785639648438,5.13795676269531
5.94692387554228,0.526724365234375,8.64785639648438,5.10922634277344
5.94917113867163,0.493205541992187,8.69095202636719,5.19062919921875
5.95147733007787,0.502782348632812,8.67179841308594,5.12837995605469
5.95378352148412,0.493205541992187,8.657433203125,5.15711037597656
5.95608971289037,0.44053310546875,8.657433203125,5.07091911621094
5.95841162131051,0.512359155273437,8.68616362304688,5.14274516601562
5.96073352973065,0.464475122070312,8.63349118652344,5.11401474609375
5.96305543815079,0.4979939453125,8.66701000976562,5.14753356933594
5.96532399609349,0.464475122070312,8.67179841308594,5.12359155273437
5.9675925540362,0.474051928710937,8.67179841308594,5.06613071289062
5.96986111197891,0.454898315429687,8.67179841308594,5.11401474609375
5.97207603417943,0.45968671875,8.65264479980469,5.15232197265625
5.97429095637996,0.416591088867187,8.67179841308594,5.08528432617187
5.97650587858048,0.416591088867187,8.657433203125,5.16189877929687
5.97872111881485,0.445321508789062,8.66222160644531,5.09007272949219
5.98093635904922,0.454898315429687,8.65264479980469,5.05176550292969
5.9831515992836,0.426167895507812,8.65264479980469,5.12837995605469
