timestamp,accel_x (m/s2),accel_y (m/s2),accel_z (m/s2)
0.00325145572916578,4.29519777832031,9.49061538085937,1.77170922851562
0.00650291145833156,4.29519777832031,9.54328781738281,1.78607443847656
0.00975436718749734,4.28083256835937,9.49540378417969,1.73819040527344
0.0163354753688812,5.0948611328125,9.04050546875,1.92972653808594
0.0229165835502651,3.88339509277344,9.61990227050781,1.71903679199219
0.029497691731649,3.78283862304687,9.80665,1.455674609375
0.0361565775823086,4.13718046875,9.67736311035156,1.59932670898438
0.0428154634329682,4.13239206542969,9.56244143066406,1.6472107421875
0.0494743492836278,4.05577761230469,9.49061538085937,1.66157595214844
0.0561359526907381,3.98873996582031,9.40921252441406,1.61369191894531
0.0627975560978484,3.95522114257812,9.40921252441406,1.55623107910156
0.0694591595049587,3.8690298828125,9.43794294433594,1.61848032226562
0.0761239239363931,3.84987626953125,9.46667336425781,1.53707746582031
0.0827886883678275,3.80678063964844,9.52892260742187,1.608903515625
0.0894534527992619,3.84987626953125,9.54807622070313,1.55623107910156
0.0961195805119436,3.7924154296875,9.59117185058594,1.64242233886719
0.102785708224625,3.72058937988281,9.58159504394531,1.62326872558594
0.109451835937307,3.70622416992187,9.58159504394531,1.69988317871094
0.116118826388705,3.64397492675781,9.59117185058594,1.7238251953125
0.122785816840102,3.54341845703125,9.56722983398437,1.76692082519531
0.1294528072915,3.51468803710937,9.63905588378906,1.84353527832031
0.136120953341864,3.41413156738281,9.66778630371094,1.84832368164062
0.142789099392227,3.34709392089844,9.69651672363281,1.86268889160156
0.149457245442591,3.28963308105469,9.68693991699219,1.86268889160156
0.156126711588437,3.26569106445312,9.70130512695312,1.8770541015625
0.162796177734284,3.1794998046875,9.71088193359375,1.90099611816406
0.16946564388013,3.18428820800781,9.76355437011719,2.04464821777344
0.189769605685645,3.01190568847656,9.59117185058594,2.02070620117187
0.21007356749116,3.05978972167969,9.51934580078125,1.98239897460937
0.230377529296675,2.98317526855469,9.42836613769531,1.94888015136719
0.237196383354785,2.96881005859375,9.39963571777344,1.86747729492187
0.244015237412896,2.99275207519531,9.31823286132813,1.88184250488281
0.250834091471006,3.10767375488281,9.25598361816406,1.86268889160156
0.257653916991785,3.14598098144531,9.1554271484375,1.84353527832031
0.264473742512564,3.15076938476562,9.13148513183594,1.87226569824219
0.271293568033343,3.14598098144531,9.05487067871094,1.86747729492187
0.278187596679193,3.14598098144531,8.963891015625,1.81480485839844
0.285081625325044,3.22259543457031,8.91600698242187,1.77170922851562
0.291975653970894,3.23696064453125,8.93037219238281,1.70467158203125
0.298872282226057,3.23696064453125,8.90164177246094,1.67594116210937
0.30576891048122,3.27047946777344,8.88248815917969,1.58017309570312
0.312665538736383,3.31357509765625,8.91600698242187,1.51792385253906
0.319563473306668,3.35667072753906,8.93516059570312,1.48919343261719
0.326461407876953,3.43328518066406,9.02614025878906,1.48440502929687
0.333359342447238,3.44286198730469,9.02614025878906,1.43173259277344
0.340259725910755,3.49553442382812,9.16021555175781,1.40300217285156
0.347160109374272,3.49553442382812,9.16979235839844,1.38863696289062
0.354060492837789,3.55778366699219,9.27513723144531,1.36469494628906
0.371313515000243,3.82114584960937,9.65342109375,1.47003981933594
0.388566537162698,3.88818349609375,9.58638344726563,1.51792385253906
0.405819559325153,3.85945307617187,9.52413420410156,1.58496149902344
0.412722372476177,3.88339509277344,9.47625017089844,1.608903515625
0.419625185627202,3.82114584960937,9.3852705078125,1.66636435546875
0.426527998778226,3.80199223632812,9.29429084472656,1.68072956542969
0.433432209824199,3.80199223632812,9.21767639160156,1.67594116210937
0.440336420870172,3.70622416992187,9.28471403808594,1.69030637207031
0.447240631916145,3.67749375,9.22725319824219,1.69509477539062
0.461150659151391,3.23217224121094,8.91600698242187,1.67115275878906
0.475060686386636,3.12203896484375,8.87291135253906,1.68551796875
0.488970713621882,3.05021291503906,8.86812294921875,1.58496149902344
0.49594587323556,2.97359846191406,8.77714328613281,1.56101948242187
0.502921032849239,2.89219560546875,8.86812294921875,1.65199914550781
0.509896192462918,2.80600434570312,8.9255837890625,1.69030637207031
0.516872597953371,2.81079274902344,9.05965908203125,1.65199914550781
0.523849003443824,2.78206232910156,9.20809958496094,1.63284553222656
0.530825408934277,2.82036955566406,9.16021555175781,1.58017309570312
0.537803096542746,2.79163913574219,9.0788126953125,1.52271225585937
0.544780784151214,2.74854350585938,8.90164177246094,1.455674609375
0.551758471759683,2.73896669921875,8.93516059570312,1.59453830566406
0.558737722519197,2.7964275390625,9.05487067871094,1.72861359863281
0.565716973278711,2.78685073242187,9.06444748535156,1.73819040527344
0.572696224038225,2.77727392578125,9.10754311523437,1.74776721191406
0.579746339923626,2.73896669921875,9.05487067871094,1.66157595214844
0.586796455809027,2.64798703613281,8.94952580566406,1.61369191894531
0.593846571694428,2.66714064941406,8.94952580566406,1.68551796875
0.600899764294222,2.63841022949219,9.00698664550781,1.76692082519531
0.607952956894015,2.54743056640625,8.90643017578125,1.72861359863281
0.615006149493809,2.63362182617187,9.02614025878906,1.92972653808594
0.622060608803717,2.77248552246094,9.26077202148437,2.12605107421875
0.629115068113625,2.74854350585938,9.33259807128906,2.08295544433594
0.636169527423533,2.65277543945312,9.18415756835937,2.02549460449219
0.64322493367348,2.50433493652344,9.08360109863281,1.94888015136719
0.650280339923427,2.40856687011719,8.97346782226562,1.89141931152344
0.657335746173374,2.40377846679687,8.96867941894531,2.02070620117187
0.664393339489322,2.4899697265625,9.02135185546875,2.10210905761719
0.671450932805271,2.55221896972656,9.30386765136719,2.23618435058594
0.67850852612122,2.54264216308594,9.4618849609375,2.20745393066406
0.685636899168098,2.375048046875,9.46667336425781,2.03507141113281
0.692765272214975,2.27449157714844,9.45709655761719,1.99197578125
0.699893645261852,2.25054956054688,9.42836613769531,2.03985981445312
0.707023575274832,2.29843359375,9.42836613769531,2.15956989746094
0.714153505287811,2.36068283691406,9.37090529785156,2.24576115722656
0.721283435300791,2.16914670410156,9.34217487792969,2.18830031738281
0.728416497149756,2.30322199707031,9.41400092773437,2.30801040039062
0.735549558998722,2.21703073730469,9.5001921875,2.33195241699219
0.742682620847688,2.18830031738281,9.48582697753906,2.29364519042969
0.749818612167114,2.1452046875,9.5001921875,2.23618435058594
0.756954603486539,2.06380183105469,9.59596025390625,2.27449157714844
0.764090594805964,1.91057292480469,9.58159504394531,2.20266552734375
0.771228754094125,1.90578452148437,9.55286462402344,2.23139594726563
0.778366913382285,1.92972653808594,9.57201823730469,2.21703073730469
0.785505072670446,1.82438166503906,9.62947907714844,2.25533796386719
0.792712446693884,1.81001645507812,9.35654008789063,2.22660754394531
0.799919820717321,1.82438166503906,9.43794294433594,2.34152922363281
0.807127194740758,1.68551796875,9.52892260742187,2.34152922363281
0.814412354788469,1.66157595214844,9.64863269042969,2.23139594726563
0.821697514836179,1.66157595214844,9.64384428710937,2.28885678710938
0.828982674883889,1.70945998535156,9.64863269042969,2.23618435058594
0.836345744219841,1.71424838867187,9.65820949707031,2.20745393066406
0.843708813555793,1.60411511230469,9.576806640625,2.18830031738281
0.851071882891745,1.54665427246094,9.52892260742187,2.13562788085937
0.858437156763273,1.56101948242187,9.51934580078125,2.04943662109375
0.865802430634801,1.67594116210937,9.51455739746094,2.04464821777344
0.873167704506329,1.61369191894531,9.54807622070313,2.00634099121094
0.880534264510686,1.60411511230469,9.4618849609375,1.93930334472656
0.887900824515043,1.64242233886719,9.44751975097656,1.87226569824219
0.8952673845194,1.74776721191406,9.423577734375,1.81001645507812
0.902709792614,1.75255561523437,9.43315454101563,1.762132421875
0.910152200708599,1.8004396484375,9.34696328125,1.70467158203125
0.917594608803199,1.95845695800781,9.24161840820312,1.608903515625
0.9250409198926,1.95845695800781,9.13148513183594,1.608903515625
0.932487230982,1.915361328125,9.14585034179687,1.51313544921875
0.939933542071401,1.96324536132812,9.14106193847656,1.50355864257812
0.947381319740638,2.03507141113281,9.117119921875,1.56101948242187
0.954829097409875,2.12605107421875,9.06444748535156,1.47482822265625
0.962276875079112,2.12126267089844,9.03571706542969,1.44609780273437
0.97717440144631,2.33195241699219,9.45230815429687,1.32159931640625
0.992071927813508,2.44687409667969,9.43794294433594,1.38384855957031
1.00696945418071,2.54743056640625,9.52892260742187,1.54665427246094
1.02931924248365,3.0262708984375,9.81143840332031,1.40779057617187
1.05166903078659,3.60566770019531,9.88805285644531,1.65678754882812
1.07401881908953,3.46680400390625,9.87368764648437,1.43173259277344
1.081539741073,2.85867678222656,9.76355437011719,1.23061965332031
1.08906066305646,2.84431157226562,9.57201823730469,1.20188923339844
1.09658158503993,2.78206232910156,9.39005891113281,1.15879360351562
1.10411201353382,2.89219560546875,9.31823286132813,1.35032973632813
1.11164244202771,3.09330854492187,9.27992563476562,1.45088620605469
1.1191728705216,3.07415493164062,9.3086560546875,1.47961662597656
1.13423784111617,2.5665841796875,9.64384428710937,2.04464821777344
1.14930281171074,2.1452046875,9.39005891113281,1.73340200195312
1.16436778230531,1.93930334472656,9.0021982421875,1.66157595214844
1.17190240752228,2.40856687011719,8.8489693359375,1.93451494140625
1.17943703273926,2.60967980957031,8.87769975585937,2.16914670410156
1.18697165795624,2.54264216308594,9.05965908203125,2.31279880371094
1.19450758167585,2.53306535644531,9.25119521484375,2.32237561035156
1.20204350539547,2.56179577636719,9.38048210449219,2.3367408203125
1.20957942911508,2.63362182617187,9.37569370117187,2.4133552734375
1.21711663885899,2.74854350585938,9.33738647460937,2.44687409667969
1.2246538486029,2.83952316894531,9.25598361816406,2.53306535644531
1.23219105834681,2.86825358886719,9.20331118164062,2.58573779296875
1.2397295273138,2.86825358886719,9.21288798828125,2.71023627929688
1.24726799628079,2.85867678222656,9.16500395507812,2.70544787597656
1.25480646524778,2.87783039550781,9.193734375,2.73417829589844
1.26240381843788,2.87783039550781,9.25119521484375,2.72938989257813
1.27000117162798,2.86825358886719,9.29907924804687,2.76769711914062
1.27759852481807,2.8730419921875,9.26077202148437,2.74375510253906
1.28519846513922,3.96479794921875,10.0843773925781,3.79720383300781
1.29279840546036,4.20900651855469,10.8217915039062,3.65355173339844
1.3003983457815,2.66235224609375,10.0077629394531,2.63841022949219
1.30799960012179,2.01591779785156,9.34696328125,2.13562788085937
1.31560085446209,1.92014973144531,8.64306799316406,2.0302830078125
1.32320210880238,2.08295544433594,8.40843623046875,2.28406838378906
1.33080494625894,2.07337863769531,8.40843623046875,2.42293208007812
1.33840778371551,2.09253225097656,8.58081875,2.53785375976562
1.34601062117207,2.11168586425781,8.94473740234375,2.59052619628906
1.35361522436212,2.20745393066406,9.52413420410156,2.71502468261719
1.36121982755217,2.09253225097656,9.72524714355469,2.64798703613281
1.36882443074222,2.16435830078125,9.74440075683594,2.67671745605469
1.37649988126306,2.22660754394531,9.96466730957031,2.77727392578125
1.3841753317839,2.13083947753906,9.79228479003906,2.71502468261719
1.39185078230474,1.98239897460937,9.65342109375,2.60489140625
1.39952868996528,1.8770541015625,9.67257470703125,2.60010300292969
1.40720659762582,1.74297880859375,9.54807622070313,2.52348854980469
1.41488450528635,1.75255561523437,9.58159504394531,2.61446821289062
1.42256372750855,1.73340200195312,9.5384994140625,2.55221896972656
1.43024294973075,1.69509477539062,9.576806640625,2.54743056640625
1.43792217195295,1.62805712890625,9.88805285644531,2.7198130859375
1.44560278393209,1.61848032226562,10.0173397460938,2.65277543945312
1.45328339591123,1.58496149902344,10.0460701660156,2.63841022949219
1.46096400789037,1.59453830566406,9.99339772949219,2.5665841796875
1.46864666175317,1.51792385253906,10.0412817626953,2.52348854980469
1.47632931561598,1.52750065917969,9.81622680664062,2.39899006347656
1.48401196947879,1.55623107910156,9.64384428710937,2.3367408203125
1.49176680932254,1.4939818359375,9.52413420410156,2.36547124023437
1.4995216491663,0.914585034179687,9.58159504394531,2.50912333984375
1.50727648901005,0.943315454101562,9.56244143066406,2.57616098632812
1.51503321101527,1.48440502929687,9.01177504882812,2.30801040039062
1.5227899330205,1.78607443847656,8.94473740234375,2.26491477050781
1.53054665502572,1.93930334472656,8.99262143554687,2.20266552734375
1.53838166370628,2.068590234375,9.03092866210937,2.16914670410156
1.54621667238683,2.20266552734375,9.05965908203125,2.14041628417969
1.55405168106739,2.29364519042969,9.117119921875,2.14999309082031
1.56189035174879,2.36068283691406,9.26556042480469,2.14999309082031
1.56972902243018,2.42772048339844,9.28950244140625,2.11168586425781
1.57756769311158,2.38462485351562,9.40921252441406,2.12126267089844
1.5854081427643,2.35589443359375,9.38048210449219,2.14041628417969
1.59324859241703,2.38941325683594,9.32302126464844,2.1835119140625
1.60108904206976,2.50912333984375,9.22725319824219,2.16914670410156
1.60893121459581,2.5665841796875,9.20331118164062,2.17872351074219
1.61677338712186,2.71023627929688,9.13627353515625,2.29364519042969
1.62461555964791,2.76769711914062,9.20331118164062,2.31279880371094
1.63245904999078,2.90656081542969,9.20809958496094,2.27449157714844
1.64030254033365,2.99275207519531,9.25119521484375,2.31279880371094
1.64814603067651,3.064578125,9.27992563476562,2.35589443359375
1.65599080563313,3.15076938476562,9.29429084472656,2.28406838378906
1.66383558058974,3.28005627441406,9.34217487792969,2.20745393066406
1.67168035554636,3.31836350097656,9.35654008789063,2.23139594726563
1.67952661335882,3.44286198730469,9.34696328125,2.24097275390625
1.68737287117129,3.62960971679687,9.423577734375,2.25054956054688
1.69521912898375,3.71101257324219,9.43794294433594,2.19308872070312
1.70706896736262,4.10845004882813,9.62469067382813,2.11647426757812
1.71891880574149,4.22337172851562,9.72045874023437,2.08295544433594
1.73076864412036,4.26646735839844,9.82101520996094,1.99197578125
1.73868275501447,4.38138903808594,9.8449572265625,2.09253225097656
1.74659686590858,4.44842668457031,9.89284125976562,2.09253225097656
1.75451097680269,4.47715710449219,9.8449572265625,2.13083947753906
1.76242643079576,4.52504113769531,9.86411083984375,2.19787712402344
1.77034188478882,4.51067592773437,9.87847604980469,2.12126267089844
1.77825733878188,4.520252734375,9.883264453125,2.15956989746094
1.78624536178535,4.57292517089844,9.88805285644531,2.17393510742187
1.79423338478881,4.51067592773437,9.95030209960937,2.16435830078125
1.80222140779227,4.48673391113281,9.91199487304687,2.17872351074219
1.81021192754052,4.48673391113281,9.90720646972656,2.13083947753906
1.81820244728876,4.45321508789062,9.78749638671875,2.23139594726563
1.826192967037,4.38617744140625,9.75876596679687,2.20745393066406
1.83418484192849,4.31435139160156,9.81622680664062,2.25054956054688
1.84217671681997,4.30477458496094,9.7683427734375,2.26491477050781
1.85016859171145,4.31435139160156,9.62469067382813,2.22660754394531
1.8581618220717,4.17069929199219,9.63426748046875,2.28406838378906
1.86615505243194,4.11323845214844,9.63905588378906,2.32716401367187
1.87414828279219,4.08929643554688,9.58638344726563,2.31758720703125
1.88214299514025,4.0988732421875,9.38048210449219,2.35589443359375
1.89013770748831,4.06535441894531,9.30386765136719,2.375048046875
1.89813241983637,4.0222587890625,9.16979235839844,2.44687409667969
1.90612843220615,3.9839515625,9.07402429199219,2.54264216308594
1.91412444457594,4.0222587890625,9.10275471191406,2.53306535644531
1.92212045694572,4.03183559570313,9.08360109863281,2.64798703613281
1.93011827139884,3.96958635253906,9.08360109863281,2.69108266601562
1.93811608585196,3.95043273925781,9.10275471191406,2.68629426269531
1.94611390030508,3.93127912597656,9.12190832519531,2.71023627929688
1.95418004440226,3.8690298828125,9.13627353515625,2.75333190917969
1.96224618849944,3.73974299316406,9.18894597167969,2.76769711914062
1.97031233259662,3.68707055664062,9.15063874511719,2.75333190917969
1.97838124698465,3.62003291015625,9.16500395507812,2.80600434570312
1.98645016137268,3.52905324707031,9.17936916503906,2.834734765625
1.99451907576071,3.47159240722656,9.20809958496094,2.81558115234375
2.00258930981016,3.36624753417969,9.27992563476562,2.85867678222656
2.01065954385962,3.01669409179687,9.36611689453125,2.72938989257813
2.01872977790907,2.86825358886719,9.51934580078125,2.62883342285156
2.0268015772797,3.08373173828125,9.47625017089844,2.73896669921875
2.03487337665033,3.12682736816406,9.47146176757813,2.82994636230469
2.04294517602096,3.06936652832031,9.47625017089844,2.88261879882812
2.05101871671106,2.9496564453125,9.51934580078125,2.87783039550781
2.05909225740116,2.89219560546875,9.52892260742187,2.84431157226562
2.06716579809125,2.81079274902344,9.56722983398437,2.82036955566406
2.07531002921104,2.73896669921875,9.55286462402344,2.76290871582031
2.08345426033083,2.66714064941406,9.57201823730469,2.77248552246094
2.09159849145061,2.56179577636719,9.56244143066406,2.72460148925781
2.09974494717973,2.4899697265625,9.59596025390625,2.72460148925781
2.10789140290886,2.43250888671875,9.59117185058594,2.72938989257813
2.11603785863798,2.35589443359375,9.50498059082031,2.76290871582031
2.12418557890709,2.30322199707031,9.51455739746094,2.68629426269531
2.1323332991762,2.25533796386719,9.41878933105469,2.72460148925781
2.1404810194453,2.24576115722656,9.47146176757813,2.69108266601562
2.14870373938889,2.18830031738281,9.41400092773437,2.69108266601562
2.15692645933247,2.13083947753906,9.39005891113281,2.82515795898437
2.16514917927606,2.11647426757812,9.3852705078125,2.82994636230469
2.17337785961454,2.16914670410156,9.37569370117187,2.84431157226562
2.18160653995303,2.05901342773437,9.45230815429687,2.86825358886719
2.18983522029151,1.98239897460937,9.45230815429687,2.91134921875
2.1982135693583,2.00634099121094,9.39963571777344,2.92092602539062
2.20659191842509,2.11647426757812,9.37569370117187,2.83952316894531
2.21497026749188,2.17393510742187,9.3086560546875,2.83952316894531
2.22335091820804,2.1452046875,9.270348828125,2.90656081542969
2.2317315689242,1.96803376464844,9.28471403808594,2.95444484863281
2.24011221964037,1.96803376464844,9.28471403808594,2.94486804199219
2.24849419316466,2.23618435058594,9.26077202148437,2.95444484863281
2.25687616668894,2.15956989746094,9.24640681152344,3.01190568847656
2.26525814021323,2.09253225097656,9.23683000488281,3.09809694824219
2.27371531935821,2.31279880371094,9.21288798828125,3.064578125
2.28217249850318,2.45645090332031,9.13627353515625,3.0262708984375
2.29062967764816,2.6431986328125,9.13148513183594,2.98317526855469
2.30331784708176,2.69108266601562,8.90643017578125,3.05978972167969
2.31600601651536,2.74854350585938,8.91600698242187,2.99275207519531
2.32869418594896,2.73417829589844,8.93994899902344,3.03105930175781
2.33715454000708,2.70065947265625,8.98304462890625,3.05021291503906
2.34561489406519,2.62883342285156,8.99740983886719,3.07894333496094
2.35407524812331,2.73896669921875,8.98783303222656,3.01190568847656
2.36268933514589,2.72938989257813,9.00698664550781,3.14598098144531
2.37130342216847,2.65277543945312,9.0021982421875,3.15076938476562
2.37991750919105,2.69587106933594,8.9255837890625,3.08852014160156
2.418690331538,3.28484467773437,8.70052883300781,3.34709392089844
2.45746315388495,3.36145913085937,8.62870278320312,3.38061274414062
2.4962359762319,3.39497795410156,8.69095202636719,3.38540114746094
2.50485603189592,3.44286198730469,8.6191259765625,3.34709392089844
2.51347608755994,3.47159240722656,8.59039555664062,3.34230551757812
2.52209614322396,3.52905324707031,8.62870278320312,3.3327287109375
2.53078731933071,3.55299526367187,8.59039555664062,3.36624753417969
2.53947849543745,3.5625720703125,8.56645354003906,3.40455476074219
2.5481696715442,3.56736047363281,8.58081875,3.38540114746094
2.56555725520305,3.6391865234375,8.58560715332031,3.294421484375
2.5829448388619,3.69664736328125,8.55208833007812,3.294421484375
2.60033242252075,3.70143576660156,8.48983908691406,3.3327287109375
2.60902922080633,3.73016618652344,8.49462749023438,3.29920988769531
2.61772601909191,3.72058937988281,8.38449421386719,3.41413156738281
2.62642281737749,3.80199223632812,8.39407102050781,3.35667072753906
2.63512315396603,3.80199223632812,8.33661018066406,3.32315190429687
2.64382349055457,3.78762702636719,8.26478413085937,3.37582434082031
2.65252382714311,3.88818349609375,8.25520732421875,3.294421484375
2.6922942266656,4.41969626464844,8.59997236328125,3.17471140136719
2.73206462618809,4.44363828125,8.53293471679688,3.08852014160156
2.77183502571057,4.44363828125,8.47547387695312,3.08852014160156
2.78076286880952,4.41969626464844,8.49462749023438,2.96881005859375
2.78969071190846,4.34787021484375,8.50899270019531,2.9496564453125
2.79861855500741,4.26646735839844,8.49941589355469,2.97359846191406
2.80754774934331,4.24731374511719,8.51378110351562,3.00232888183594
2.81647694367922,4.16591088867187,8.48983908691406,3.05978972167969
2.82540613801513,4.11802685546875,8.43237824707031,3.141192578125
2.84326657291086,3.82593425292969,8.2743609375,3.30399829101562
2.8611270078066,3.86424147949219,8.3126681640625,3.24653745117187
2.87898744270234,3.85466467285156,8.31745656738281,3.36624753417969
2.88791949348356,3.84987626953125,8.21211169433594,3.4093431640625
2.89685154426477,3.92170231933594,8.17859287109375,3.52905324707031
2.90578359504599,3.90254870605469,8.13549724121094,3.59609089355469
2.91471693488974,3.86424147949219,8.11155522460937,3.65834013671875
2.9236502747335,3.81156904296875,8.13549724121094,3.77805021972656
2.93258361457725,3.80199223632812,8.0828248046875,3.84029946289062
2.94391100791497,3.60566770019531,8.17859287109375,3.9456443359375
2.95523840125268,3.46201560058594,8.14986245117187,3.85945307617187
2.96656579459039,2.55700737304687,8.41801303710938,4.11802685546875
2.97983091348698,3.5625720703125,9.35654008789063,4.86980617675781
2.99309603238356,3.69185895996094,9.24640681152344,4.75488449707031
3.00636115128015,3.61524450683594,9.21288798828125,4.75488449707031
3.00885577584607,2.7964275390625,9.36132849121094,4.95599743652344
3.01135040041199,3.58172568359375,8.92079538574219,4.78361491699219
3.01384502497791,3.73016618652344,8.62870278320312,4.58250197753906
3.01634008693537,3.64397492675781,8.68616362304688,4.59207878417969
3.01883514889283,3.59130249023437,8.82981572265625,4.51546433105469
3.02133021085029,3.52905324707031,8.93994899902344,4.49631071777344
3.02378223767316,3.42370837402344,9.06923588867187,4.4819455078125
3.02623426449602,3.41891997070312,9.270348828125,4.45321508789062
3.02868629131889,3.47638081054687,9.31823286132813,4.33350500488281
3.03108176818518,3.54341845703125,9.48582697753906,4.18506450195312
3.03347724505148,3.26090266113281,9.73961235351562,4.29998618164062
3.03587272191777,2.98317526855469,9.84974562988281,4.53461794433594
3.03822517547684,2.90656081542969,9.95987890625,4.43884987792969
3.04057762903591,3.01669409179687,10.0508585693359,4.3287166015625
3.04293008259498,3.00711728515625,10.0748005859375,4.22816013183594
3.05580955389507,2.38941325683594,10.4530844482422,3.49553442382812
3.06868902519517,2.67671745605469,10.6972930175781,3.44286198730469
3.08156849649527,2.43250888671875,10.9750204101562,3.50989963378906
3.08390854495721,2.26970317382813,11.2144405761719,3.39018955078125
3.08624859341916,2.28406838378906,11.3341506591797,3.11725056152344
3.0885886418811,2.28406838378906,11.6023012451172,2.94486804199219
3.09092943681655,2.23139594726563,11.7842605712891,2.60967980957031
3.09327023175199,2.15956989746094,11.9853735107422,2.35589443359375
3.09561102668744,2.30322199707031,12.1290256103516,2.04464821777344
3.09795295160069,2.19308872070312,12.3828109863281,1.84832368164062
3.10029487651394,2.30322199707031,12.5887123291016,1.65678754882812
3.1026368014272,2.32716401367187,12.6509615722656,1.53707746582031
3.10497924728226,2.51391174316406,12.5647703125,1.29765729980469
3.10732169313733,2.66714064941406,12.5935007324219,1.16358200683594
3.1096641389924,3.03584770507812,12.2583125,1.1109095703125
3.11207633994727,3.25132585449219,11.8034141845703,1.00077629394531
3.11448854090215,3.31357509765625,11.3868230957031,0.871489404296875
3.11690074185702,3.18428820800781,11.1426145263672,0.8810662109375
3.11928094585007,3.01190568847656,10.6925046142578,0.948103857421875
3.12166114984312,2.70065947265625,10.3621047851562,1.08696755371094
3.12404135383616,2.52348854980469,9.90241806640625,1.12048637695313
3.12646609255142,2.3367408203125,9.35654008789063,1.29286889648437
3.12889083126669,2.49475812988281,8.50899270019531,1.24019645996094
3.13131556998195,2.43250888671875,7.88650026855469,1.31202250976562
3.13374375617985,2.31279880371094,7.22570061035156,1.36469494628906
3.13617194237776,2.12126267089844,6.84262834472656,1.44609780273437
3.13860012857566,2.07816704101562,6.818686328125,1.69509477539062
3.14102882887947,2.22660754394531,6.8569935546875,2.08774384765625
3.14345752918327,2.53785375976562,6.83305153808594,2.38462485351562
3.14588622948708,2.84909997558594,6.83305153808594,2.71502468261719
3.14831510144891,3.08373173828125,7.06768330078125,2.82994636230469
3.15074397341075,3.064578125,7.30231506347656,2.88740720214844
3.15317284537258,2.96881005859375,7.50821640625,2.86825358886719
3.15560147319375,2.8730419921875,7.68059892578125,2.54264216308594
3.15803010101492,2.91134921875,7.83382783203125,2.3367408203125
3.16045872883609,2.89698400878906,7.98226833496094,2.19787712402344
3.16281774424406,2.92092602539062,8.0062103515625,2.1835119140625
3.16517675965203,2.834734765625,8.25999572753906,2.07816704101562
3.16753577506,2.83952316894531,8.48505068359375,1.97761057128906
3.16989296527271,2.89698400878906,8.74841286621094,2.04464821777344
3.17225015548541,3.04063610839844,9.04050546875,2.15956989746094
3.17460734569812,3.18907661132813,9.28950244140625,2.37025964355469
3.17821892195133,3.25132585449219,9.75876596679687,2.61446821289062
3.18183049820453,3.08852014160156,9.81622680664062,2.56179577636719
3.18544207445774,2.89698400878906,9.83538041992187,2.40856687011719
3.18786042612876,2.65277543945312,9.94551369628906,2.44208569335937
3.19027877779977,2.26491477050781,9.98382092285156,2.30801040039062
3.19269712947079,1.89620771484375,10.0939541992188,2.25054956054688
3.19508225208364,1.67594116210937,10.2376062988281,2.18830031738281
3.19746737469649,1.44609780273437,10.419565625,2.11647426757812
3.19985249730934,1.24977326660156,10.4818148681641,2.05422502441406
3.20220560207283,1.27371528320312,10.5632177246094,2.04943662109375
3.20455870683632,1.25456166992187,10.5680061279297,2.12126267089844
3.20691181159981,1.25456166992187,10.5775829345703,2.1452046875
3.2092680063155,1.25456166992187,10.5440641113281,2.27927998046875
3.21162420103119,1.2641384765625,10.4339308349609,2.37025964355469
3.21398039574689,1.23540805664062,10.1562034423828,2.51870014648437
3.21639683107672,1.19710083007812,9.90241806640625,2.51870014648437
3.21881326640655,1.23061965332031,9.63905588378906,2.57137258300781
3.22122970173638,1.17315881347656,9.26556042480469,2.66235224609375
3.22364593068602,1.12527478027344,8.98783303222656,2.67671745605469
3.22606215963566,1.12527478027344,8.76756647949219,2.69587106933594
3.2284783885853,1.13485158691406,8.56645354003906,2.76769711914062
3.23086024931666,1.22104284667969,8.45632026367188,2.84431157226562
3.23324211004802,1.29765729980469,8.31745656738281,2.80121594238281
3.23562397077939,1.33117612304687,8.28393774414062,2.90656081542969
3.23793390252848,1.48440502929687,8.26957253417969,2.99275207519531
3.24024383427758,1.455674609375,8.23126530761719,2.93529123535156
3.24255376602667,1.47482822265625,8.33661018066406,2.93050283203125
3.24478759556225,1.54186586914062,8.37491740722656,2.85867678222656
3.24702142509782,1.55144267578125,8.44674345703125,2.70065947265625
3.2492552546334,1.5322890625,8.58560715332031,2.63841022949219
3.25151995846365,1.50355864257812,8.70052883300781,2.57137258300781
3.25378466229391,1.55144267578125,8.79629689941406,2.49475812988281
3.25604936612416,1.58017309570312,8.93516059570312,2.52348854980469
3.25831475289717,1.59453830566406,8.98304462890625,2.39899006347656
3.26058013967018,1.62326872558594,9.06444748535156,2.44208569335937
3.26284552644319,1.74297880859375,9.16500395507812,2.42293208007812
3.26507405682509,1.81001645507812,9.26077202148437,2.51870014648437
3.26730258720698,1.85311208496094,9.36132849121094,2.53306535644531
3.26953111758888,1.86747729492187,9.39484731445313,2.58094938964844
3.27172123998474,1.90099611816406,9.42836613769531,2.54264216308594
3.2739113623806,1.94888015136719,9.41878933105469,2.61446821289062
3.27610148477646,2.07337863769531,9.39963571777344,2.60967980957031
3.27829021188152,2.16914670410156,9.43794294433594,2.64798703613281
3.28047893898658,2.20266552734375,9.43794294433594,2.72460148925781
3.28266766609164,2.31279880371094,9.41878933105469,2.81079274902344
3.28492783250515,2.27449157714844,9.423577734375,2.95923325195312
3.28718799891866,2.24097275390625,9.4618849609375,3.04063610839844
3.28944816533217,2.35589443359375,9.40442412109375,3.05978972167969
3.29171078852372,2.4899697265625,9.270348828125,2.93529123535156
3.29397341171527,2.49954653320312,9.18415756835937,2.96402165527344
3.29623603490683,2.40377846679687,9.17458076171875,2.9496564453125
3.29849983871541,2.33195241699219,9.14106193847656,2.84431157226562
3.30076364252399,2.32716401367187,9.117119921875,2.80121594238281
3.30302744633258,2.33195241699219,9.02614025878906,2.86825358886719
3.30529295300575,2.45645090332031,8.97825622558594,2.89698400878906
3.30755845967892,2.43250888671875,8.963891015625,2.9496564453125
3.3098239663521,2.46123930664062,8.95910261230469,3.00232888183594
3.31209028298624,2.47560451660156,8.93037219238281,3.07415493164062
3.31435659962038,2.41814367675781,8.89685336914062,3.12682736816406
3.31662291625452,2.4133552734375,8.77714328613281,3.15076938476562
3.31892299671243,2.48518132324219,8.75798967285156,3.12682736816406
3.32122307717034,2.47560451660156,8.6191259765625,3.07415493164062
3.32352315762824,2.44687409667969,8.54729992675781,3.02148249511719
3.32578862735486,2.35589443359375,8.56166513671875,2.94486804199219
3.32805409708148,2.23618435058594,8.67658681640625,2.97359846191406
3.3303195668081,2.37983645019531,8.74362446289062,2.91613762207031
3.33258240585617,2.24576115722656,8.67658681640625,2.92092602539062
3.33484524490424,1.36948334960938,9.36611689453125,3.22259543457031
3.33710808395231,2.10210905761719,10.0700121826172,3.16034619140625
3.33937041818987,3.16992299804687,9.67736311035156,3.05021291503906
3.34163275242743,3.28963308105469,9.44751975097656,2.79163913574219
3.34389508666499,3.1028853515625,9.65342109375,2.83952316894531
3.34615750013073,2.70065947265625,10.3046439453125,2.89698400878906
3.34841991359646,2.7964275390625,10.6350437744141,3.04542451171875
3.3506823270622,2.80121594238281,10.3908352050781,2.77248552246094
3.3530106994038,3.11246215820312,10.0317049560547,2.07337863769531
3.35533907174539,2.97838686523437,9.71088193359375,1.70467158203125
3.35766744408699,2.86825358886719,9.56722983398437,1.27371528320312
3.35999644235083,2.71502468261719,9.75397756347656,1.37427175292969
3.36232544061467,2.93050283203125,9.82580361328125,1.762132421875
3.36465443887852,2.31758720703125,9.76355437011719,1.59932670898438
3.3669854139762,2.49954653320312,9.71567033691406,0.411802685546875
3.36931638907388,2.50433493652344,10.6446205810547,0.545877978515625
3.37164736417157,3.3327287109375,11.0755768798828,0.924161840820312
3.37395167607476,4.060566015625,10.4099888183594,0.622492431640625
3.37625598797795,3.64876333007812,9.70130512695312,0.0143652099609375
3.37856029988114,3.03105930175781,9.34696328125,0.0909796630859375
3.38083778355085,3.07894333496094,8.56166513671875,-0.0909796630859375
3.38311526722057,2.69587106933594,9.36611689453125,1.4173673828125
3.38539275089028,1.65678754882812,13.0148802246094,4.04620080566406
3.38773333303002,0.761356127929687,15.8352497802734,6.11000263671875
3.39007391516977,0.507570751953125,16.472107421875,7.19218178710937
3.39241449730952,1.23540805664062,14.6429373535156,6.57447775878906
3.39475603756559,3.03584770507812,10.9702320068359,4.02704719238281
3.39709757782166,4.14196887207031,7.07726010742187,1.47482822265625
3.39943911807774,4.2521021484375,4.20421811523437,-0.426167895507812
3.40178069386985,3.80678063964844,2.78206232910156,-1.5705962890625
3.40412226966197,2.94486804199219,2.46602770996094,-1.4173673828125
3.40646384545408,2.0302830078125,3.39497795410156,-0.392649072265625
3.40877058921491,1.12048637695313,5.20499440917969,1.42215578613281
3.41107733297575,0.9193734375,6.90008918457031,3.29920988769531
3.41338407673658,1.17794721679687,8.09719001464844,4.85544096679687
3.41565561889151,1.71903679199219,8.50899270019531,5.53539423828125
3.41792716104644,2.03985981445312,8.47547387695312,5.69819995117187
3.42019870320138,2.38941325683594,8.12113203125,5.36301171875
3.42253984409768,2.32237561035156,7.6231380859375,4.81234533691406
3.42488098499399,2.21224233398438,7.43639035644531,3.9456443359375
3.4272221258903,1.94888015136719,7.18260498046875,3.13161577148437
3.42956401977049,1.77649763183594,6.91924279785156,2.4899697265625
3.43190591365069,1.55144267578125,6.82347473144531,1.93930334472656
3.43424780753088,1.28329208984375,7.10120212402344,1.45088620605469
3.43658930622884,1.17794721679687,7.68538732910156,1.25456166992187
3.43893080492681,1.44130939941406,8.01578715820312,0.9576806640625
3.44127230362477,0.928950244140625,8.99740983886719,1.21625444335937
3.44357824861176,1.25935007324219,9.85932243652344,1.13006318359375
3.44588419359875,1.18273562011719,11.1138841064453,1.24019645996094
3.44819013858574,1.88663090820312,11.8177793945313,1.38384855957031
3.45046081404145,1.94409174804687,12.6222311523437,1.4173673828125
3.45273148949716,1.74297880859375,12.9861498046875,1.455674609375
3.45500216495287,2.14999309082031,12.9334773681641,0.991199487304687
3.45746049589906,3.17471140136719,13.4171061035156,0.129286889648437
3.45991882684524,3.70143576660156,13.33091484375,-0.44053310546875
3.46237715779142,3.70622416992187,13.7044103027344,-0.493205541992187
3.46479656539776,4.01747038574219,13.9725608886719,-0.612915625
3.4672159730041,4.64953962402344,14.4226708007812,-0.493205541992187
3.46963538061044,4.98951625976563,14.5471692871094,0.148440502929687
3.47205477899367,5.35343491210937,14.5663229003906,0.59376201171875
3.4744741773769,5.65510432128906,14.1640970214844,0.9193734375
3.47689357576013,5.22893642578125,13.5751234130859,1.13963999023438
3.47938575555613,3.91691391601562,13.2255699707031,1.22104284667969
3.48187793535213,3.47159240722656,12.4737906494141,1.00556469726562
3.48437011514812,2.49475812988281,12.0045271240234,0.756567724609375
3.486936844369,1.915361328125,11.3197854492187,0.737414111328125
3.48950357358988,2.13083947753906,10.5440641113281,0.967257470703125
3.49207030281076,2.53785375976562,9.76355437011719,1.42215578613281
3.49463816006988,2.70065947265625,9.17458076171875,2.03985981445312
3.49720601732901,3.07415493164062,8.63827958984375,2.62404501953125
3.49977387458813,3.58172568359375,8.06367119140625,3.08852014160156
3.5086434119688,2.35589443359375,9.33259807128906,1.79565124511719
3.51751294934947,3.03105930175781,8.94473740234375,0.387860668945312
3.52638248673014,2.32716401367187,9.13148513183594,0.426167895507812
3.53376954825359,2.14041628417969,7.4699091796875,2.15956989746094
3.54115660977703,2.33195241699219,7.6614453125,2.17872351074219
3.54854367130048,2.34152922363281,8.32224497070312,2.85388837890625
3.55096850078183,2.71023627929688,8.58560715332031,3.01669409179687
3.55339333026319,3.16513459472656,8.44195505371094,3.17471140136719
3.55581815974455,2.56179577636719,8.71968244628906,3.62482131347656
3.5582445957254,2.4133552734375,8.97346782226562,3.43807358398437
3.56067103170625,2.40856687011719,8.71010563964844,3.21780703125
3.5630974676871,2.83952316894531,7.7763669921875,3.21780703125
3.57412307478334,1.99197578125,9.117119921875,2.28406838378906
3.58514868187958,2.834734765625,9.51455739746094,2.95923325195312
3.59617428897582,3.141192578125,9.83538041992187,3.19865341796875
3.59859594782999,3.04063610839844,9.84974562988281,2.94007963867187
3.60101760668416,3.14598098144531,9.89284125976562,2.78206232910156
3.60343926553833,3.04542451171875,10.036493359375,2.60489140625
3.60586134127614,3.48116921386719,10.1226846191406,3.11725056152344
3.60828341701396,4.9416322265625,10.5632177246094,3.83072265625
3.61070549275178,3.26090266113281,9.73482395019531,2.69108266601562
3.61312751510422,1.70945998535156,8.47547387695312,1.59453830566406
3.61554953745667,1.0342951171875,8.11155522460937,1.46046301269531
3.61797155980912,1.81959326171875,8.36534060058594,2.41814367675781
3.62039313782558,3.19865341796875,8.30787976074219,3.57693728027344
3.62281471584204,3.70143576660156,8.16901606445312,3.77326181640625
3.62523629385851,3.55778366699219,8.21211169433594,3.69664736328125
3.62765904624568,3.34709392089844,8.26957253417969,3.40455476074219
3.63008179863285,3.19386501464844,8.75798967285156,3.39497795410156
3.63250455102002,10.7547538574219,10.8984059570312,7.42202514648437
3.63492999633255,6.052541796875,11.4347071289062,5.29118566894531
3.63735544164509,-0.1149216796875,8.67179841308594,1.28808049316406
3.63978088695762,-2.528276953125,8.22647690429687,-0.622492431640625
3.64220735646715,-1.69988317871094,8.73883605957031,-0.316034619140625
3.64463382597667,1.80522805175781,9.3852705078125,1.7238251953125
3.6470602954862,3.69185895996094,9.51455739746094,3.18428820800781
3.64941313608945,3.47159240722656,9.05487067871094,3.43328518066406
3.65176597669271,3.03584770507812,8.60476076660156,3.05978972167969
3.65411881729597,2.96402165527344,8.52335791015625,2.94486804199219
3.65646696985679,2.72938989257813,8.83939252929687,3.17471140136719
3.65881512241761,2.64798703613281,9.05965908203125,3.50511123046875
3.66116327497843,2.58573779296875,9.05965908203125,3.46680400390625
3.66342917797328,2.57137258300781,8.92079538574219,3.23696064453125
3.66569508096813,12.7515180419922,8.99262143554687,7.57525405273437
3.66796098396298,7.50342800292969,10.9175595703125,6.87135876464844
3.67022687198376,-1.23540805664062,8.53772312011719,1.58496149902344
3.67249276000454,-3.85466467285156,7.25443103027344,-1.44130939941406
3.67475864802532,-1.7238251953125,8.16422766113281,-0.713472094726562
3.67702608335518,2.40377846679687,9.47625017089844,1.74297880859375
3.67929351868505,3.99352836914062,9.64863269042969,2.96881005859375
3.68156095401491,3.61045610351562,8.58081875,2.83952316894531
3.68382614205742,5.37737692871094,7.59919606933594,3.82593425292969
3.68609133009992,14.2119810546875,9.98860932617187,9.26077202148437
3.68835651814243,3.22259543457031,9.95987890625,5.46835659179687
3.69062260364586,-1.51792385253906,7.84819304199219,1.4173673828125
3.6928886891493,-2.05422502441406,7.57046564941406,-0.282515795898438
3.69515477465274,0.857124194335937,8.75320126953125,0.493205541992187
3.69742220857197,3.42849677734375,9.73482395019531,2.24576115722656
3.69968964249121,3.65355173339844,9.72524714355469,2.96402165527344
3.70195707641045,2.78685073242187,9.14585034179687,2.65756384277344
3.70414837843951,2.4516625,8.82023891601562,2.15478149414062
3.70633968046856,2.47081611328125,8.93037219238281,2.32237561035156
3.70853098249762,2.63362182617187,8.93037219238281,2.35589443359375
3.71064667625711,2.96881005859375,8.93516059570312,2.46602770996094
3.71276237001661,3.01190568847656,8.98304462890625,2.54264216308594
3.7148780637761,2.93050283203125,8.91121857910156,2.47560451660156
3.71699419001715,2.99754047851562,8.6957404296875,2.37983645019531
3.7191103162582,2.81079274902344,8.68137521972656,2.221819140625
3.72122644249924,2.92092602539062,8.67179841308594,2.1835119140625
3.72448629037929,2.58573779296875,8.42280144042969,2.50912333984375
3.72774613825934,2.57616098632812,8.56166513671875,2.58573779296875
3.73100598613939,2.48518132324219,8.59518395996094,2.65756384277344
3.73319169320454,2.5665841796875,8.58560715332031,2.76290871582031
3.73537740026969,2.71502468261719,8.4658970703125,2.834734765625
3.73756310733484,2.72938989257813,8.55687673339844,2.91134921875
3.73974866516907,2.81558115234375,8.54729992675781,2.95444484863281
3.7419342230033,2.88261879882812,8.47547387695312,3.01669409179687
3.74411978083754,2.86346518554687,8.504204296875,2.85867678222656
3.74627029309882,3.03584770507812,8.56645354003906,2.66235224609375
3.74842080536011,2.93529123535156,8.56166513671875,2.73896669921875
3.75057131762139,2.91613762207031,8.41322463378906,2.58573779296875
3.75268748765177,3.03105930175781,8.42280144042969,2.80600434570312
3.75480365768215,3.13161577148437,8.51378110351562,2.89219560546875
3.75691982771252,2.95923325195312,8.58560715332031,3.09330854492187
3.75910571963955,2.89698400878906,8.59997236328125,2.94486804199219
3.76129161156659,3.01669409179687,8.76756647949219,2.85388837890625
3.76347750349362,2.92571442871094,8.657433203125,2.78685073242187
3.76566383802049,3.09330854492187,8.87291135253906,2.67192905273437
3.76785017254736,3.19865341796875,9.05487067871094,2.93529123535156
3.77003650707422,3.20344182128906,9.10754311523437,2.834734765625
3.77222134588715,3.1028853515625,9.03571706542969,2.8730419921875
3.77440618470007,3.064578125,8.9255837890625,2.99275207519531
3.77659102351299,3.00232888183594,9.13148513183594,2.97359846191406
3.77876159336435,3.20344182128906,9.10275471191406,2.88740720214844
3.7809321632157,3.05021291503906,8.96867941894531,2.84431157226562
3.78310273306705,3.12203896484375,8.93516059570312,2.64798703613281
3.78521830921178,3.17471140136719,8.99262143554687,2.76290871582031
3.7873338853565,3.21301862792969,9.08360109863281,2.72460148925781
3.78944946150122,3.0262708984375,9.00698664550781,2.63362182617187
3.79173582236817,3.1028853515625,8.9255837890625,2.5665841796875
3.79402218323512,3.12203896484375,8.94473740234375,2.37025964355469
3.79630854410208,3.141192578125,9.12669672851562,2.53306535644531
3.79854290399246,3.13640417480469,9.18894597167969,2.49954653320312
3.80077726388284,3.14598098144531,9.30386765136719,2.59052619628906
3.80301162377322,3.07415493164062,9.23683000488281,2.66714064941406
3.80520553230184,3.05021291503906,9.24161840820312,2.65277543945312
3.80739944083047,3.15555778808594,9.40442412109375,2.60489140625
3.80959334935909,2.91134921875,9.1554271484375,2.67192905273437
3.81178612637732,2.96881005859375,8.99740983886719,2.73417829589844
3.81397890339556,3.11725056152344,9.1554271484375,2.681505859375
3.81617168041379,3.31836350097656,9.34217487792969,2.70544787597656
3.8183646084737,3.23217224121094,9.41878933105469,2.59531459960937
3.82055753653361,3.36145913085937,9.43315454101563,2.55221896972656
3.82275046459353,3.35188232421875,9.34217487792969,2.57137258300781
3.82494398716299,3.50511123046875,9.50498059082031,2.54743056640625
3.82713750973246,3.3710359375,9.34696328125,2.51870014648437
3.82933103230192,3.45243879394531,9.34217487792969,2.53306535644531
3.8315251316943,3.60566770019531,9.26077202148437,2.56179577636719
3.83371923108668,3.59609089355469,9.28950244140625,2.51391174316406
3.83591333047906,3.50511123046875,9.06923588867187,2.4133552734375
3.84750388590966,3.01669409179687,8.95431420898437,2.47081611328125
3.85909444134026,2.95444484863281,9.08838950195312,2.57616098632812
3.87068499677085,2.84431157226562,9.08360109863281,2.54743056640625
3.87302633348418,2.80121594238281,9.19852277832031,2.54264216308594
3.87536767019751,2.78206232910156,9.34696328125,2.56179577636719
3.87770900691083,2.97359846191406,9.193734375,2.681505859375
3.88000857645834,3.1794998046875,9.06923588867187,2.72460148925781
3.88230814600584,3.51468803710937,8.963891015625,3.05021291503906
3.88460771555334,3.64397492675781,8.60476076660156,3.26090266113281
3.88686367277445,3.41891997070312,8.64785639648438,3.14598098144531
3.88911962999556,3.32794030761719,8.64785639648438,3.26090266113281
3.89137558721667,3.11246215820312,8.62391437988281,3.15076938476562
3.89358788794905,3.16992299804687,8.6957404296875,2.58094938964844
3.89580018868143,3.39018955078125,9.117119921875,2.58573779296875
3.89801248941382,3.92170231933594,9.00698664550781,2.69108266601562
3.90021341411002,4.05098920898438,9.117119921875,2.72938989257813
3.90241433880622,3.91691391601562,9.01177504882812,2.80121594238281
3.90461526350242,3.63439812011719,8.82981572265625,2.73896669921875
3.91120871977423,3.68228215332031,9.63426748046875,1.98718737792969
3.91780217604603,3.53384165039062,9.71088193359375,1.55144267578125
3.92439563231784,3.68228215332031,9.6917283203125,1.73819040527344
3.93108229549047,3.64876333007812,9.91678327636719,1.32638771972656
3.93776895866311,3.69185895996094,10.2711251220703,1.33596452636719
3.94445562183574,3.41891997070312,10.2184526855469,1.455674609375
3.94668298855667,3.34230551757812,10.3381627685547,0.981622680664062
3.9489103552776,3.96000954589844,10.1849338623047,0.909796630859375
3.95113772199852,3.82593425292969,10.0029745361328,1.47961662597656
3.95335594247374,3.65834013671875,9.79228479003906,1.32638771972656
3.95557416294897,3.69185895996094,9.88805285644531,1.38863696289062
3.95779238342419,3.86424147949219,9.730035546875,1.74776721191406
3.95999862996284,3.82593425292969,9.58159504394531,1.69509477539062
3.96220487650148,4.18027609863281,9.63426748046875,1.63763393554687
3.96441112304012,4.28562097167969,9.50498059082031,2.16435830078125
3.96661117360437,4.18027609863281,9.49540378417969,2.24576115722656
3.96881122416861,3.77326181640625,9.5001921875,2.11647426757812
3.97101127473286,3.58651408691406,9.49540378417969,1.75734401855469
3.97327436902534,3.39497795410156,9.72045874023437,1.838746875
3.97553746331782,3.54341845703125,9.56244143066406,1.66157595214844
3.97780055761029,3.68707055664062,9.36611689453125,1.67115275878906
3.98006414636897,3.95522114257812,9.47146176757813,1.35990654296875
3.98232773512765,3.88339509277344,9.22725319824219,2.11647426757812
3.98459132388632,3.82593425292969,9.23683000488281,1.76692082519531
3.9869296086085,3.84029946289062,9.13627353515625,1.92493813476562
3.98926789333067,3.97437475585937,9.14106193847656,2.07816704101562
3.99160617805285,4.20421811523437,8.97825622558594,2.16914670410156
3.99394507290962,3.70143576660156,9.02135185546875,2.18830031738281
3.99628396776639,3.40455476074219,8.90164177246094,2.0302830078125
3.99862286262317,3.13640417480469,8.9255837890625,1.90099611816406
4.00089199901637,2.71502468261719,8.91121857910156,1.92972653808594
4.00316113540957,2.55700737304687,8.87291135253906,1.69988317871094
4.00543027180277,2.65277543945312,8.94473740234375,1.48919343261719
4.00769897362568,3.25132585449219,8.8489693359375,1.51792385253906
4.00996767544859,3.50032282714844,8.92079538574219,1.48440502929687
4.01223637727151,3.97437475585937,8.75798967285156,1.455674609375
4.01442824044424,4.07971962890625,8.87769975585937,1.51313544921875
4.01662010361698,3.97916315917969,8.65264479980469,1.57538469238281
4.01881196678971,3.53384165039062,8.62391437988281,1.62805712890625
4.0209985251665,3.84987626953125,8.39407102050781,1.47482822265625
4.02318508354328,3.87860668945312,8.13549724121094,2.1835119140625
4.02537164192006,3.85466467285156,8.09719001464844,2.30322199707031
4.02755885491922,4.38138903808594,7.93917270507812,2.26970317382813
4.02974606791838,5.39174213867187,7.76679018554687,2.54743056640625
4.03193328091754,6.14830986328125,8.29830295410156,1.81959326171875
4.03529758281098,-0.483628735351562,11.0564232666016,8.57603034667969
4.03866188470442,-5.77960280761719,3.76847341308594,-1.39821376953125
4.04202618659787,-1.23540805664062,7.71890615234375,-4.290409375
4.04428097734226,2.82036955566406,9.11233151855469,0.239420166015625
4.04653576808666,6.11479104003906,9.21288798828125,2.87783039550781
4.04879055883106,6.61278498535156,9.883264453125,2.38941325683594
4.0510454971991,4.43884987792969,9.81143840332031,1.47003981933594
4.05330043556715,2.60967980957031,9.75397756347656,0.4979939453125
4.05555537393519,2.13083947753906,9.56244143066406,0.13407529296875
4.05779546098485,2.97359846191406,9.38048210449219,0.6512228515625
4.06003554803452,3.93127912597656,9.18894597167969,1.15400520019531
4.06227563508418,4.83628735351562,9.09796630859375,1.59453830566406
4.06447010687242,4.36223542480469,8.84418093261719,1.70945998535156
4.06666457866066,3.77805021972656,8.77714328613281,1.65678754882812
4.06885905044891,4.2521021484375,8.64785639648438,0.97683427734375
4.0712009371677,4.07014282226563,8.53772312011719,1.46046301269531
4.0735428238865,4.39575424804687,8.33182177734375,1.92014973144531
4.07588471060529,5.09007272949219,8.25041892089844,2.07337863769531
4.07822568771032,4.92247861328125,8.34139858398438,2.41814367675781
4.08056666481535,4.67827004394531,8.0828248046875,2.39420166015625
4.08290764192037,4.49631071777344,8.07803640136719,2.19308872070312
4.08524778677711,4.89853659667969,7.8529814453125,1.70467158203125
4.08758793163385,4.89374819335937,7.98226833496094,1.71424838867187
4.08992807649059,4.520252734375,8.18338127441406,1.76692082519531
4.09226493749325,4.27604416503906,8.71489404296875,1.73819040527344
4.09460179849591,4.12760366210938,8.73883605957031,1.53707746582031
4.09693865949856,3.97916315917969,8.810662109375,1.15879360351562
4.09921575042739,3.88339509277344,8.27914934082031,1.05823713378906
4.10149284135622,3.77805021972656,8.40364782714844,1.13006318359375
4.10376993228505,3.96958635253906,8.25520732421875,1.08217915039062
4.106049572259,4.24252534179687,8.49462749023438,1.21625444335937
4.10832921223295,4.6351744140625,8.63349118652344,1.48440502929687
4.11060885220689,5.2097828125,8.60476076660156,1.81480485839844
4.1175628411392,3.45722719726562,10.7116582275391,0.502782348632812
4.12451683007151,2.8730419921875,10.8648871337891,0.177170922851562
4.13147081900382,3.03584770507812,10.9941740234375,-0.086191259765625
4.13373882204202,3.141192578125,11.3533042724609,0.086191259765625
4.13600682508023,3.141192578125,11.4873795654297,0.521935961914062
4.13827482811843,3.28484467773437,11.2814782226562,0.55545478515625
4.14054239050986,3.34709392089844,11.2000753662109,0.4213794921875
4.14280995290128,2.97359846191406,11.2383825927734,0.531512768554687
4.14507751529271,3.00232888183594,11.0133276367187,0.502782348632812
4.14734505164258,2.93529123535156,10.8074262939453,0.32561142578125
4.14961258799245,3.01669409179687,10.8265799072266,0.24899697265625
4.15188012434231,3.29920988769531,10.5919481445312,0.0718260498046875
4.15414750531016,3.99831677246094,10.1945106689453,0.47884033203125
4.15641488627801,4.18506450195312,10.2471831054687,1.13006318359375
4.15868226724587,3.79720383300781,10.3908352050781,1.48440502929687
4.16109813649498,2.987963671875,10.4052004150391,1.40300217285156
4.16351400574409,2.55221896972656,10.1514150390625,1.24019645996094
4.1659298749932,2.23139594726563,9.92636008300781,1.10133276367187
4.16835152202007,2.46123930664062,9.81622680664062,1.16837041015625
4.17077316904694,3.04063610839844,9.67257470703125,1.23061965332031
4.17319481607382,3.27526787109375,9.73961235351562,1.70467158203125
4.17561941807035,3.3710359375,9.61990227050781,1.74776721191406
4.17804402006688,3.07415493164062,9.66778630371094,1.70467158203125
4.18046862206342,3.03105930175781,9.72045874023437,1.76692082519531
4.18289342002347,3.18428820800781,9.51934580078125,1.75734401855469
4.18531821798352,3.41413156738281,9.40442412109375,1.608903515625
4.18774301594357,3.3710359375,9.576806640625,1.94409174804687
4.19016805967182,2.27927998046875,10.8409451171875,2.38462485351562
4.19259310340008,2.5665841796875,10.3142207519531,2.13083947753906
4.19501814712834,3.7158009765625,9.89762966308594,1.915361328125
4.19744322319171,3.98873996582031,9.71088193359375,1.63763393554687
4.19986829925508,4.17069929199219,9.56722983398437,1.23540805664062
4.20229337531845,4.213794921875,9.76355437011719,1.22104284667969
4.20465060329155,4.11323845214844,9.78749638671875,1.47961662597656
4.20700783126466,4.68305844726562,8.94473740234375,0.852335791015625
4.20936505923777,3.39976635742187,10.5823713378906,1.97761057128906
4.22123358961958,3.41891997070312,7.49863959960937,3.90254870605469
4.2331021200014,4.14196887207031,6.33505759277344,3.43328518066406
4.24497065038321,3.99352836914062,6.052541796875,3.39497795410156
4.2473146758824,4.06535441894531,5.75087238769531,3.31836350097656
4.2496587013816,3.93127912597656,5.899312890625,3.21780703125
4.25200272688079,3.79720383300781,6.37815322265625,2.74854350585938
4.25434652201968,3.61045610351562,6.88572397460938,2.54264216308594
4.25669031715857,3.57214887695312,7.46512077636719,2.26970317382813
4.25903411229746,3.66312854003906,8.18338127441406,1.99197578125
4.26137664636866,3.31836350097656,9.18894597167969,1.915361328125
4.26371918043986,3.33751711425781,9.81622680664062,1.76692082519531
4.26606171451107,3.65834013671875,10.0700121826172,1.62805712890625
4.2684041363861,4.03183559570313,10.4387192382812,1.63763393554687
4.27074655826112,4.39096584472656,10.4291424316406,2.03507141113281
4.27308898013615,4.36223542480469,10.3285859619141,2.34631762695312
4.27551085437663,4.45800349121094,9.94072529296875,2.34631762695312
4.27793272861711,4.88895979003906,9.53371101074219,2.11647426757812
4.28035460285759,4.49631071777344,9.44751975097656,2.19308872070312
4.28277645919436,4.31913979492187,9.29429084472656,2.25533796386719
4.28519831553113,4.45321508789062,9.23683000488281,2.19787712402344
4.2876201718679,4.34787021484375,9.20809958496094,2.02549460449219
4.29004167154238,3.67270534667969,9.270348828125,2.1452046875
4.29246317121687,3.89776030273437,8.98304462890625,2.14041628417969
4.29488467089135,4.37181223144531,8.9255837890625,1.92972653808594
4.29730606509711,4.66390483398437,8.78193168945312,1.87226569824219
4.29972745930288,3.49074602050781,9.01656345214844,2.49475812988281
4.30214885350864,3.18907661132813,8.92079538574219,2.26970317382813
4.304570140401,3.85466467285156,8.69095202636719,1.838746875
4.30699142729336,4.2521021484375,8.69095202636719,1.94888015136719
4.30941271418573,4.37181223144531,8.33661018066406,2.24576115722656
4.31176479892961,4.5585599609375,8.45153186035156,2.16914670410156
4.3141168836735,4.45321508789062,8.42758984375,2.43250888671875
4.31646896841738,4.12281525878906,8.49941589355469,2.4516625
4.32365757920299,5.02782348632813,8.97825622558594,2.37025964355469
4.3308461899886,5.53539423828125,8.69095202636719,2.20266552734375
4.33803480077421,5.21457121582031,9.01177504882812,2.39420166015625
4.34052791069176,4.75009609375,9.08360109863281,2.24576115722656
4.3430210206093,5.14274516601562,9.14585034179687,1.98718737792969
4.34551413052685,4.94642062988281,9.16500395507812,2.20266552734375
4.34778407714144,5.63595070800781,8.94952580566406,1.96324536132812
4.35005402375602,5.99029255371094,9.12669672851562,2.11168586425781
4.35232397037061,6.29196196289062,8.82981572265625,2.00634099121094
4.35466520550511,6.03338818359375,9.0021982421875,1.96803376464844
4.35700644063962,5.42526096191406,9.16979235839844,2.16914670410156
4.35934767577413,6.0142345703125,8.77714328613281,1.81959326171875
4.36168856531407,6.13873305664062,8.91600698242187,1.83395847167969
4.36402945485401,5.33906970214844,9.21288798828125,1.99676418457031
4.36637034439394,5.12359155273437,9.36611689453125,1.90578452148437
4.3686380462169,5.30555087890625,9.270348828125,1.81959326171875
4.37090574803985,5.82748684082031,9.29907924804687,1.74297880859375
4.3731734498628,4.79319172363281,9.52413420410156,2.15478149414062
4.37536877126037,4.21858332519531,9.54807622070313,1.87226569824219
4.37756409265794,4.80755693359375,9.16979235839844,1.50834704589844
4.37975941405551,4.68784685058594,9.44273134765625,1.68551796875
4.38524830798993,4.50109912109375,9.24161840820312,1.69030637207031
4.39073720192435,4.50588752441406,9.193734375,1.75255561523437
4.39622609585876,3.90254870605469,9.11233151855469,1.65678754882812
4.39842505381231,3.76368500976562,8.89206496582031,1.5322890625
4.40062401176586,4.38617744140625,8.68137521972656,1.37906015625
4.40282296971941,4.30956298828125,8.810662109375,1.61369191894531
4.40502388020119,3.78762702636719,8.92079538574219,1.7238251953125
4.40722479068298,3.6391865234375,8.64785639648438,1.71424838867187
4.40942570116476,3.73016618652344,8.40364782714844,1.79565124511719
4.41391797069601,4.79798012695312,8.28393774414062,2.05422502441406
4.41841024022726,4.14196887207031,8.50899270019531,2.27449157714844
4.4229025097585,3.83072265625,8.10676682128906,2.28885678710938
4.42516571038781,4.55377155761719,7.68538732910156,2.00155258789062
4.42742891101712,5.05655390625,7.50821640625,2.02070620117187
4.42969211164643,4.39575424804687,7.67581052246094,2.15478149414062
4.43195556531392,3.53384165039062,7.83861623535156,2.30322199707031
4.4342190189814,4.26646735839844,7.45554396972656,1.84353527832031
4.43648247264889,4.70221206054687,7.55610043945312,2.02070620117187
4.43874491492325,3.84987626953125,7.7763669921875,2.4133552734375
4.44100735719762,4.23294853515625,7.91523068847656,2.09732065429687
4.44326979947198,4.60644399414062,7.83382783203125,1.96324536132812
4.44552046651843,4.85544096679687,7.86734665527344,2.26970317382813
4.44777113356488,4.29519777832031,7.93438430175781,2.46602770996094
4.45002180061134,4.23294853515625,8.03494077148437,2.39899006347656
4.45240528102587,4.98951625976563,7.76200178222656,2.17872351074219
4.45478876144039,4.72615407714844,7.92480749511719,2.38941325683594
4.45717224185492,4.38617744140625,8.10676682128906,2.51391174316406
4.45954101567223,4.14675727539062,8.39407102050781,2.49475812988281
4.46190978948954,4.54419475097656,8.04930598144531,2.34631762695312
4.46427856330685,5.06134230957031,7.69017573242187,2.27449157714844
4.46663130880384,4.70700046386719,7.738059765625,2.3367408203125
4.46898405430083,4.48673391113281,7.89607707519531,2.58094938964844
4.47133679979783,4.57771357421875,7.84819304199219,2.54264216308594
4.47368555294454,4.56813676757812,7.78115539550781,2.48039291992187
4.47603430609125,4.75488449707031,7.82903942871094,2.49954653320312
4.47838305923796,4.68305844726562,8.09240161132812,2.6431986328125
4.48073125498447,4.58729038085937,8.22647690429687,2.78685073242187
4.48307945073098,4.33350500488281,8.42758984375,2.85867678222656
4.48542764647749,4.5585599609375,8.44195505371094,2.84909997558594
4.48777571885165,4.75967290039062,8.37970581054688,2.83952316894531
4.49012379122581,4.70221206054687,8.40843623046875,2.79163913574219
4.49247186359997,4.56334836425781,8.58081875,2.88740720214844
4.49481983001706,4.84586416015625,8.504204296875,2.7964275390625
4.49716779643414,4.8650177734375,8.67658681640625,2.91134921875
4.49951576285122,4.78361491699219,8.82023891601562,2.99275207519531
4.50535366389281,3.21780703125,8.93037219238281,2.77248552246094
4.51119156493441,3.141192578125,8.95910261230469,2.67671745605469
4.51702946597601,3.18428820800781,8.93994899902344,2.66714064941406
4.51937131862354,3.24653745117187,8.9255837890625,2.60010300292969
4.52171317127107,3.24174904785156,8.85854614257812,2.55221896972656
4.52405502391861,3.39976635742187,8.82502731933594,2.4899697265625
4.52639786180924,3.4093431640625,8.80108530273437,2.48039291992187
4.52874069969988,3.44286198730469,8.83460412597656,2.44208569335937
4.53108353759052,3.41891997070312,8.86333454589844,2.37983645019531
4.53342695642734,3.39976635742187,8.97346782226562,2.32237561035156
4.53577037526416,3.42370837402344,9.01177504882812,2.33195241699219
4.53811379410098,3.49074602050781,9.03571706542969,2.23618435058594
4.54039165564611,3.48116921386719,9.05965908203125,2.1835119140625
4.54266951719124,3.51468803710937,9.16021555175781,2.14041628417969
4.54494737873637,3.56736047363281,9.12669672851562,2.07816704101562
4.54728931211315,3.69664736328125,9.13148513183594,2.07816704101562
4.54963124548993,3.80678063964844,9.10275471191406,2.17393510742187
4.55197317886672,3.83072265625,9.1554271484375,2.11168586425781
4.55431417571998,3.90254870605469,9.16500395507812,2.0302830078125
4.55665517257324,3.61524450683594,9.23683000488281,2.1452046875
4.55899616942651,3.65355173339844,9.14106193847656,2.00155258789062
4.56126728769908,3.85466467285156,9.09796630859375,1.8770541015625
4.56353840597166,3.91691391601562,9.00698664550781,1.85790048828125
4.56580952424423,3.8690298828125,9.05965908203125,1.86747729492187
4.56808282741268,3.95522114257812,9.05965908203125,1.78128603515625
4.57035613058112,3.93606752929687,9.05487067871094,1.76692082519531
4.57262943374957,4.23294853515625,9.01177504882812,1.66636435546875
4.57504844405778,4.28083256835937,8.93994899902344,1.67115275878906
4.57746745436598,4.33829340820312,8.98783303222656,1.69030637207031
4.57988646467419,4.58250197753906,8.83939252929687,1.78128603515625
4.58238171413171,4.60165559082031,8.6191259765625,1.78128603515625
4.58487696358924,4.43406147460937,8.59997236328125,1.68551796875
4.58737221304676,3.99831677246094,8.62391437988281,1.51792385253906
4.58986869796424,3.71101257324219,8.66222160644531,1.39342536621094
4.59236518288172,4.04141240234375,8.64306799316406,1.43173259277344
4.59486166779919,4.86022937011719,8.28393774414062,1.7238251953125
4.59735820968287,5.08528432617187,7.95353791503906,1.81959326171875
4.59985475156655,5.10922634277344,7.6231380859375,1.6472107421875
4.60235129345023,9.08838950195312,6.40209523925781,1.73340200195312
4.60479694620089,10.7308118408203,6.67982263183594,3.00232888183594
4.60724259895155,4.83149895019531,7.26879624023437,2.19787712402344
4.60968825170221,3.18428820800781,7.38371791992187,0.895431420898437
4.61211681523302,2.70544787597656,7.83861623535156,0.857124194335937
4.61454537876383,3.07415493164062,7.95832631835937,1.29286889648437
4.61697394229463,3.21301862792969,8.03494077148437,1.608903515625
4.61940216891139,3.57693728027344,7.94874951171875,1.65199914550781
4.62183039552815,3.25132585449219,8.09240161132812,1.55144267578125
4.62425862214491,2.86346518554687,8.05409438476562,1.40300217285156
4.63759895317262,2.99754047851562,9.81143840332031,2.16914670410156
4.65093928420034,3.28963308105469,9.85932243652344,2.71502468261719
4.66427961522805,1.64242233886719,10.4818148681641,2.70065947265625
4.66670365971586,-1.8770541015625,11.3963999023437,1.60411511230469
4.66912770420366,-2.987963671875,11.3676694824219,0.32561142578125
4.67155174869146,-1.81480485839844,10.7978494873047,0.138863696289063
4.6739769361915,-0.220266552734375,10.2854903320312,0.622492431640625
4.67640212369154,0.110133276367187,10.5296989013672,1.93930334472656
4.67882731119158,1.19231242675781,10.4435076416016,2.51870014648437
4.68102677484177,2.31279880371094,10.5392757080078,2.68629426269531
4.68322623849195,2.67192905273437,10.6398321777344,2.79163913574219
4.68542570214214,2.23139594726563,10.7403886474609,2.73896669921875
4.68768692729409,1.89620771484375,10.8217915039062,2.63841022949219
4.68994815244603,2.59531459960937,10.6302553710937,2.38462485351562
4.69220937759798,2.72938989257813,10.8840407470703,2.54264216308594
4.69447120594,2.834734765625,10.9127711669922,2.56179577636719
4.69673303428201,2.98317526855469,10.8457335205078,2.62883342285156
4.69899486262403,3.18428820800781,10.6972930175781,2.60967980957031
4.70125673230721,2.78206232910156,10.7834842773437,2.55700737304687
4.70351860199039,2.08774384765625,11.0037508300781,2.58094938964844
4.70578047167356,1.85790048828125,10.9702320068359,2.54264216308594
4.70804385676469,2.1068974609375,10.9367131835937,2.50912333984375
4.71030724185583,2.26970317382813,10.8553103271484,2.62404501953125
4.71257062694696,2.80121594238281,10.7595422607422,2.7198130859375
4.71483794660842,3.34230551757812,10.4722380615234,2.59531459960937
4.71710526626989,3.36624753417969,10.5009684814453,2.61446821289062
4.71937258593135,2.86346518554687,10.6111017578125,2.72938989257813
4.7218624509487,2.78685073242187,10.5488525146484,2.59531459960937
4.72435231596605,2.50912333984375,10.8265799072266,2.69587106933594
4.7268421809834,2.03507141113281,11.1809217529297,2.90177241210937
4.72929705403026,1.97761057128906,11.3293622558594,2.91613762207031
4.73175192707712,1.915361328125,11.4730143554687,2.90177241210937
4.73420680012398,1.99197578125,11.5065331787109,2.78685073242187
4.73661337466829,1.94888015136719,11.5017447753906,2.76290871582031
4.7390199492126,1.84353527832031,11.1904985595703,2.5665841796875
4.74142652375691,1.03908352050781,11.2096521728516,2.46602770996094
4.74378476366581,1.19231242675781,10.8457335205078,2.30322199707031
4.74614300357471,0.74699091796875,11.1426145263672,2.40856687011719
4.74850124348361,0.933738647460937,10.9127711669922,2.26491477050781
4.75081108918671,0.675164868164063,10.8936175537109,2.30801040039062
4.75312093488981,0.541089575195312,10.7595422607422,2.15478149414062
4.75543078059292,0.215478149414062,10.7356002441406,2.04943662109375
4.75770484938636,-0.526724365234375,10.6733510009766,2.17393510742187
4.7599789181798,-0.258573779296875,10.6015249511719,1.97282216796875
4.76225298697324,0.13407529296875,10.419565625,2.08295544433594
4.77018117629075,2.38941325683594,9.73961235351562,2.94486804199219
4.77810936560826,2.0302830078125,9.75397756347656,2.82036955566406
4.78603755492577,2.44687409667969,9.61990227050781,2.54264216308594
4.79296512645351,3.47159240722656,9.55286462402344,2.69587106933594
4.79989269798125,3.36624753417969,9.51455739746094,2.57137258300781
4.80682026950899,3.21780703125,9.5384994140625,2.62883342285156
4.80915809386875,3.10767375488281,9.5001921875,2.60489140625
4.8114959182285,3.27047946777344,9.39963571777344,2.43250888671875
4.81383374258826,3.01669409179687,9.42836613769531,2.46123930664062
4.81616783760777,2.79163913574219,9.35175168457031,2.36547124023437
4.81850193262727,2.72938989257813,9.42836613769531,2.23618435058594
4.82083602764678,2.50912333984375,9.43315454101563,2.31758720703125
4.82314647323052,2.64798703613281,9.33259807128906,2.26970317382813
4.82545691881426,3.00232888183594,9.3086560546875,2.30801040039062
4.827767364398,2.90656081542969,9.45709655761719,2.44687409667969
4.8301968147344,2.75333190917969,9.39484731445313,2.43250888671875
4.83262626507079,2.3367408203125,9.33738647460937,2.57137258300781
4.83505571540718,3.51468803710937,9.03571706542969,2.38462485351562
4.83755483009899,4.74051928710937,9.0021982421875,2.63841022949219
4.8400539447908,4.41490786132812,9.06444748535156,2.8730419921875
4.84255305948261,4.11323845214844,9.0021982421875,2.79163913574219
4.8450508522886,3.39497795410156,9.16979235839844,2.82994636230469
4.84754864509459,4.07493122558594,9.05487067871094,2.73896669921875
4.85004643790057,4.00310517578125,9.10754311523437,2.78206232910156
4.85254237046354,4.08929643554688,9.05965908203125,2.86825358886719
4.8550383030265,4.48673391113281,8.65264479980469,2.78206232910156
4.85753423558947,4.35744702148437,8.657433203125,2.63841022949219
4.86002846014454,4.50588752441406,8.50899270019531,2.61925661621094
4.86252268469961,4.14675727539062,8.58081875,2.7581203125
4.86501690925468,4.16591088867187,8.51378110351562,2.70065947265625
4.86755017987097,3.70143576660156,8.63349118652344,2.82036955566406
4.87008345048726,3.63439812011719,8.59518395996094,2.67671745605469
4.87261672110355,3.98873996582031,8.68616362304688,2.61446821289062
4.87511855497943,4.213794921875,8.62391437988281,2.46602770996094
4.87762038885531,3.34709392089844,8.82502731933594,2.69108266601562
4.88012222273119,3.50032282714844,8.53293471679688,2.29364519042969
4.89227337974076,2.20745393066406,10.0939541992188,2.82515795898437
4.90442453675034,1.87226569824219,10.0843773925781,2.375048046875
4.91657569375991,1.78607443847656,9.87368764648437,2.08295544433594
4.91899585212582,1.56101948242187,9.74918916015625,2.03985981445312
4.92141601049173,1.2641384765625,9.85453403320312,2.03985981445312
4.92383616885763,1.04387192382812,9.7683427734375,1.99676418457031
4.92625579814361,1.06302553710937,9.61032546386719,2.01591779785156
4.92867542742958,1.27371528320312,9.43794294433594,2.25533796386719
4.93109505671555,1.66636435546875,9.24161840820312,2.58094938964844
4.93349777408209,1.92493813476562,9.16979235839844,3.05978972167969
4.93590049144863,2.01112939453125,9.12669672851562,3.31357509765625
4.93830320881517,2.0302830078125,9.1554271484375,3.45722719726562
4.94065590130653,1.93930334472656,9.08838950195312,3.3710359375
4.94300859379789,2.02070620117187,8.99740983886719,3.24174904785156
4.94536128628926,1.98239897460937,8.87291135253906,3.07894333496094
4.94785806406698,2.01112939453125,8.7723548828125,2.92571442871094
4.95035484184471,1.91057292480469,8.74841286621094,2.97359846191406
4.95285161962244,2.25054956054688,8.74362446289062,2.93050283203125
4.95534892376742,2.63362182617187,8.53293471679688,3.05500131835937
4.9578462279124,2.91134921875,8.29830295410156,2.90177241210937
4.96034353205738,3.07415493164062,8.14986245117187,2.88740720214844
4.96284082795582,3.11725056152344,8.12592043457031,2.85388837890625
4.96533812385426,3.09809694824219,8.23126530761719,2.8730419921875
4.9678354197527,3.16992299804687,8.37491740722656,2.99275207519531
4.97033278748273,3.39497795410156,8.52335791015625,3.05021291503906
4.97283015521276,3.47638081054687,8.75320126953125,3.13640417480469
4.97532752294279,3.54820686035156,8.91600698242187,3.17471140136719
4.9776805092709,3.58172568359375,9.10754311523437,3.27047946777344
4.980033495599,3.76368500976562,9.21767639160156,3.29920988769531
4.98238648192711,3.96958635253906,9.27513723144531,3.3710359375
4.98474088991321,3.97437475585937,9.40921252441406,3.54820686035156
4.98709529789932,4.13239206542969,9.43315454101563,3.52426484375
4.98944970588542,4.08929643554688,9.54328781738281,3.54341845703125
4.99180288611545,3.79720383300781,9.64863269042969,3.6391865234375
4.99415606634547,4.15154567871094,9.51455739746094,3.50032282714844
4.9965092465755,4.24252534179687,9.60074865722656,3.55299526367187
5.00248854760091,3.80199223632812,9.63905588378906,3.57693728027344
5.00846784862633,3.78283862304687,9.6151138671875,3.49553442382812
5.01444714965174,3.64876333007812,9.60553706054687,3.45243879394531
5.01684837758145,3.52905324707031,9.66299790039063,3.42849677734375
5.01924960551115,3.44286198730469,9.63426748046875,3.33751711425781
5.02165083344086,3.23696064453125,9.6917283203125,3.30878669433594
5.02402856607971,3.14598098144531,9.71088193359375,3.35667072753906
5.02640629871857,3.36624753417969,9.70130512695312,3.20344182128906
5.02878403135743,3.45243879394531,9.55286462402344,3.22738383789062
5.03121156471247,3.37582434082031,9.39484731445313,3.08373173828125
5.03363909806751,3.38061274414062,9.29907924804687,2.99275207519531
5.03606663142256,3.32315190429687,9.33259807128906,2.92571442871094
5.0384893584191,3.24174904785156,9.35175168457031,3.01190568847656
5.04091208541564,3.16992299804687,9.35175168457031,2.99275207519531
5.04333481241218,3.09809694824219,9.31344445800781,2.96402165527344
5.04575691581933,2.86346518554687,9.34217487792969,2.88740720214844
5.04817901922648,2.81079274902344,9.43315454101563,2.90656081542969
5.05060112263362,2.80121594238281,9.35175168457031,2.85867678222656
5.05302265203903,2.7964275390625,9.3086560546875,2.84431157226562
5.05544418144444,2.7198130859375,9.30386765136719,2.78685073242187
5.05786571084985,2.75333190917969,9.31823286132813,2.6431986328125
5.06036036997525,2.65756384277344,9.31823286132813,2.84909997558594
5.06285502910064,2.57137258300781,9.27992563476562,2.7198130859375
5.06534968822604,2.54743056640625,9.28950244140625,2.73417829589844
5.06784655476253,2.78685073242187,9.32780966796875,2.83952316894531
5.07034342129901,2.53306535644531,9.31823286132813,2.95923325195312
5.0728402878355,2.49954653320312,9.23683000488281,3.00711728515625
5.07522890898351,2.90177241210937,9.27992563476562,2.99754047851562
5.07761753013151,3.00711728515625,9.19852277832031,3.16034619140625
5.08000615127952,2.84431157226562,8.93516059570312,3.15555778808594
5.08235558541581,2.65277543945312,8.83460412597656,2.9496564453125
5.08470501955209,2.4516625,8.74362446289062,2.834734765625
5.08705445368838,2.53306535644531,8.68616362304688,2.88740720214844
5.08940124204554,2.55221896972656,8.74362446289062,3.00711728515625
5.0917480304027,1.90578452148437,8.88248815917969,3.064578125
5.09409481875986,1.78128603515625,8.89206496582031,2.90656081542969
5.0964408296648,1.8770541015625,8.68616362304688,2.9496564453125
5.09878684056974,1.54186586914062,8.75320126953125,2.97838686523437
5.10113285147469,1.54186586914062,8.68616362304688,2.78685073242187
5.10347863744473,1.49877023925781,8.72925925292969,2.80121594238281
5.10582442341477,1.57538469238281,8.7723548828125,2.8730419921875
5.10817020938481,1.5705962890625,8.87769975585937,2.85867678222656
5.11168815553822,1.36948334960938,9.28471403808594,2.79163913574219
5.11520610169163,1.28329208984375,9.22246479492187,2.75333190917969
5.11872404784503,1.25456166992187,9.23683000488281,2.70544787597656
5.12581307415791,2.73417829589844,9.84016882324219,2.43729729003906
5.13290210047078,2.38462485351562,9.84974562988281,2.38941325683594
5.13999112678365,2.09732065429687,9.79228479003906,2.36068283691406
5.14250156336134,1.92493813476562,9.60074865722656,2.17872351074219
5.14501199993904,1.96803376464844,9.3852705078125,2.08295544433594
5.14752243651674,2.32716401367187,9.21767639160156,2.24097275390625
5.15010090732843,2.38941325683594,9.26077202148437,2.36547124023437
5.15267937814012,2.50433493652344,9.33738647460937,2.42772048339844
5.15525784895181,2.50912333984375,9.38048210449219,2.49475812988281
5.15783630283636,2.62404501953125,9.3086560546875,2.53785375976562
5.16041475672091,2.60010300292969,9.28471403808594,2.69108266601562
5.16299321060546,2.66235224609375,9.3086560546875,2.7198130859375
5.16557015537539,2.62404501953125,9.31344445800781,2.68629426269531
5.16814710014531,2.59052619628906,9.26077202148437,2.7198130859375
5.17072404491523,2.528276953125,9.16979235839844,2.71023627929688
5.17330034678154,2.55221896972656,9.10275471191406,2.76290871582031
5.17587664864785,2.70065947265625,8.99262143554687,2.72938989257813
5.17845295051416,2.56179577636719,8.9255837890625,2.7964275390625
5.18102674326587,2.50912333984375,8.94473740234375,2.681505859375
5.18360053601759,2.43250888671875,8.84418093261719,2.73417829589844
5.18617432876931,2.46123930664062,8.83460412597656,2.60489140625
5.19224669305428,2.86825358886719,9.09317790527344,2.39899006347656
5.19831905733925,2.83952316894531,9.16979235839844,2.59531459960937
5.20439142162422,2.42293208007812,9.34217487792969,2.40856687011719
5.21167022208003,2.32237561035156,9.14585034179687,2.20266552734375
5.21894902253583,2.40856687011719,9.22246479492187,2.25533796386719
5.22622782299163,2.60967980957031,9.20809958496094,2.35110603027344
5.23355157988181,3.55299526367187,8.5425115234375,2.70544787597656
5.24087533677198,3.6391865234375,8.41801303710938,2.72938989257813
5.24819909366215,3.7158009765625,8.52814631347656,2.70544787597656
5.25059587350154,3.44286198730469,8.63349118652344,2.73896669921875
5.25299265334093,3.28005627441406,8.55687673339844,2.7198130859375
5.25538943318031,3.1028853515625,8.65264479980469,2.45645090332031
5.25774717330614,3.24174904785156,8.67658681640625,2.37983645019531
5.26010491343197,3.47638081054687,8.75320126953125,2.35110603027344
5.2624626535578,3.24174904785156,8.80587370605469,2.43250888671875
5.26478293551312,3.17471140136719,8.87769975585937,2.40856687011719
5.26710321746843,3.06936652832031,8.90643017578125,2.22660754394531
5.26942349942374,2.91134921875,8.97346782226562,2.14041628417969
5.27170729803489,3.00232888183594,9.05965908203125,2.11168586425781
5.27399109664604,3.01669409179687,9.12190832519531,2.09253225097656
5.27627489525719,2.95444484863281,9.25598361816406,2.11647426757812
5.27861562713656,2.89698400878906,9.34696328125,2.04943662109375
5.28095635901593,2.9496564453125,9.37090529785156,2.07816704101562
5.2832970908953,2.83952316894531,9.117119921875,2.25054956054688
5.28563808563274,2.88261879882812,9.49540378417969,1.94888015136719
5.28797908037018,3.05500131835937,9.59596025390625,1.81001645507812
5.29032007510762,3.05500131835937,9.6151138671875,2.08774384765625
5.29266006102884,2.86825358886719,9.68215151367187,1.99197578125
5.29500004695007,2.54264216308594,9.77791958007812,1.86747729492187
5.29734003287129,2.40856687011719,9.90241806640625,1.7238251953125
5.29968097170047,2.42772048339844,9.79228479003906,1.7238251953125
5.30202191052965,2.30322199707031,9.89284125976562,1.77649763183594
5.30436284935882,1.97282216796875,9.90720646972656,1.62326872558594
5.30670583145515,2.04943662109375,9.883264453125,1.56580788574219
5.30904881355148,2.27927998046875,9.67736311035156,1.69030637207031
5.31139179564781,2.32716401367187,9.11233151855469,2.22660754394531
5.31379911813048,2.15478149414062,8.76277807617187,2.5665841796875
5.31620644061314,2.28885678710938,8.71489404296875,2.74375510253906
5.31861376309581,1.1109095703125,9.21767639160156,1.97282216796875
5.32102116641611,1.10133276367187,9.73482395019531,1.16837041015625
5.32342856973641,2.69587106933594,9.73961235351562,1.67594116210937
5.32583597305671,4.060566015625,9.90720646972656,2.77248552246094
5.32821414341259,4.23294853515625,10.0317049560547,3.67749375
5.33059231376848,3.58172568359375,10.1705686523437,3.83072265625
5.33297048412436,2.94486804199219,10.2328178955078,3.40455476074219
5.33532076569988,2.54264216308594,10.1992990722656,2.95923325195312
5.3376710472754,2.528276953125,10.036493359375,2.66235224609375
5.34002132885092,2.55700737304687,9.76355437011719,2.52348854980469
5.34237059577801,2.64798703613281,9.55286462402344,2.46123930664062
5.3447198627051,2.59531459960937,9.43794294433594,2.41814367675781
5.34706912963219,2.681505859375,9.36132849121094,2.38462485351562
5.34956619810011,2.83952316894531,9.32302126464844,2.30322199707031
5.35206326656803,3.00232888183594,9.36132849121094,2.43729729003906
5.35456033503596,3.21301862792969,9.34217487792969,2.57616098632812
5.3570574349708,3.35188232421875,9.37090529785156,2.68629426269531
5.35955453490565,3.70622416992187,9.31344445800781,2.91134921875
5.3620516348405,3.67749375,9.36611689453125,2.99275207519531
5.36454882939349,3.32315190429687,9.36611689453125,2.94486804199219
5.36704602394648,3.03584770507812,9.18894597167969,2.68629426269531
5.36954321849947,2.77727392578125,9.117119921875,2.38941325683594
5.37189151190222,3.1794998046875,9.2320416015625,2.03507141113281
5.37423980530497,3.27526787109375,9.16979235839844,2.26970317382813
5.37658809870771,3.03584770507812,9.10754311523437,2.48039291992187
5.37893517032226,2.85388837890625,9.15063874511719,2.38941325683594
5.38128224193681,3.19865341796875,9.24640681152344,2.26970317382813
5.38362931355135,3.23217224121094,9.02614025878906,2.70065947265625
5.38597676635082,3.27526787109375,9.12669672851562,2.70065947265625
5.38832421915028,3.30878669433594,9.05487067871094,2.834734765625
5.39067167194975,3.15076938476562,9.10275471191406,2.88740720214844
5.39800106919364,4.18506450195312,8.25041892089844,2.43729729003906
5.40533046643753,3.76368500976562,8.38449421386719,2.37983645019531
5.41265986368143,3.35667072753906,8.80108530273437,2.35589443359375
5.41515133612069,2.94007963867187,9.35175168457031,2.67671745605469
5.41764280855995,3.39976635742187,9.74918916015625,2.52348854980469
5.42013428099921,3.22738383789062,10.0077629394531,2.74375510253906
5.42275528951704,3.45243879394531,10.0317049560547,2.50912333984375
5.42537629803487,3.50989963378906,9.90720646972656,2.51391174316406
5.4279973065527,3.38061274414062,9.730035546875,2.38462485351562
5.43058652503148,3.0262708984375,9.68693991699219,2.24097275390625
5.43317574351026,3.23217224121094,9.5384994140625,2.15956989746094
5.43576496198904,3.00232888183594,9.47146176757813,2.26491477050781
5.43834422028982,2.78685073242187,9.50498059082031,2.37983645019531
5.44092347859061,3.26569106445312,9.41400092773437,2.56179577636719
5.44350273689139,4.44363828125,8.963891015625,3.62960971679687
5.44607914623382,2.05422502441406,9.36132849121094,3.71101257324219
5.44865555557626,1.8770541015625,9.49540378417969,3.09330854492187
5.45123196491869,2.71023627929688,9.21767639160156,2.98317526855469
5.45380760738827,4.20900651855469,8.90643017578125,2.99754047851562
5.45638324985784,4.8650177734375,8.83939252929687,2.64798703613281
5.45895889232742,4.1754876953125,9.09317790527344,2.85388837890625
5.46658066245544,2.1068974609375,9.68215151367187,1.81959326171875
5.47420243258347,1.5322890625,10.0173397460938,2.08774384765625
5.48182420271149,1.66157595214844,9.94072529296875,2.17393510742187
5.48433069300012,0.90021982421875,10.1657802490234,2.59052619628906
5.48683718328874,3.08373173828125,9.33259807128906,1.98239897460937
5.48934367357737,2.7964275390625,9.52413420410156,2.02549460449219
5.50133378588189,4.05098920898438,9.46667336425781,2.95444484863281
5.51332389818642,4.51546433105469,9.18415756835937,2.60967980957031
5.52531401049094,4.24252534179687,9.11233151855469,2.59052619628906
5.52765440534773,3.38061274414062,9.193734375,2.84909997558594
5.52999480020452,2.50433493652344,9.4618849609375,2.91134921875
5.53233519506131,2.2601263671875,9.82580361328125,2.66235224609375
5.53467554499618,2.40856687011719,9.65820949707031,2.7964275390625
5.53701589493105,2.05422502441406,9.51455739746094,2.62404501953125
5.53935624486593,1.05344873046875,9.66778630371094,1.86268889160156
5.54169698450355,2.90177241210937,9.12190832519531,1.63284553222656
5.54403772414118,4.54419475097656,8.76277807617187,2.9496564453125
5.54637846377881,4.14675727539062,9.12669672851562,3.45722719726562
5.5487168306896,3.19386501464844,9.58638344726563,3.21780703125
5.55105519760039,1.60411511230469,10.5775829345703,2.48039291992187
5.55339356451118,-0.01915361328125,11.415553515625,0.229843359375
5.55579003166066,6.44040246582031,9.13148513183594,2.80600434570312
5.55818649881014,4.65911643066406,9.67257470703125,4.13239206542969
5.56058296595962,2.77727392578125,10.0891657958984,3.15555778808594
5.56296989586952,1.90578452148437,9.98860932617187,2.35589443359375
5.56535682577942,1.65678754882812,9.72045874023437,1.98718737792969
5.56774375568932,1.80522805175781,9.77791958007812,1.73819040527344
5.5701204125741,2.08295544433594,9.60553706054687,2.03985981445312
5.57249706945889,2.11647426757812,9.45230815429687,2.39420166015625
5.57487372634367,1.94888015136719,9.54328781738281,2.62404501953125
5.57724006973015,1.62805712890625,9.58638344726563,2.74375510253906
5.57960641311662,1.86747729492187,9.36611689453125,2.79163913574219
5.58197275650309,2.21703073730469,9.117119921875,2.78206232910156
5.58439341774442,2.34152922363281,8.91121857910156,2.70065947265625
5.58681407898575,2.53306535644531,8.71489404296875,2.55700737304687
5.58923474022708,2.3367408203125,8.71010563964844,2.40377846679687
5.59165023718894,2.55221896972656,8.68137521972656,2.37025964355469
5.59406573415079,2.8730419921875,8.66222160644531,2.51870014648437
5.59648123111265,2.83952316894531,8.76277807617187,2.61446821289062
5.59889579773585,2.6431986328125,8.89206496582031,2.61446821289062
5.60131036435905,2.47560451660156,9.02135185546875,2.43250888671875
5.60372493098225,2.65756384277344,8.99262143554687,2.35589443359375
5.6061397306784,2.54743056640625,8.94952580566406,2.33195241699219
5.60855453037455,2.50912333984375,8.91121857910156,2.27449157714844
5.6109693300707,2.42293208007812,8.91600698242187,2.29843359375
5.61332200791359,2.5665841796875,8.89685336914062,2.36068283691406
5.61567468575648,2.58573779296875,8.88248815917969,2.55700737304687
5.61802736359937,2.44687409667969,8.91121857910156,2.91134921875
5.62038190428946,2.84909997558594,8.75320126953125,2.88740720214844
5.62273644497956,2.8730419921875,8.77714328613281,3.00711728515625
5.62509098566966,3.12682736816406,8.49941589355469,2.97359846191406
5.62750982746653,3.09809694824219,8.3892826171875,3.02148249511719
5.62992866926341,2.89698400878906,8.33182177734375,3.03584770507812
5.63234751106029,3.12682736816406,8.34618698730469,3.02148249511719
5.63476527907248,3.42370837402344,8.37012900390625,2.93529123535156
5.63718304708467,3.82114584960937,8.42758984375,2.72938989257813
5.63960081509686,3.447650390625,8.44195505371094,2.78685073242187
5.64201470951957,2.86346518554687,8.45153186035156,2.84431157226562
5.64442860394229,2.4516625,8.49462749023438,2.7964275390625
5.646842498365,2.65277543945312,8.58081875,2.69108266601562
5.64903413291366,2.61925661621094,8.75798967285156,2.89698400878906
5.65122576746232,2.78685073242187,8.71968244628906,2.99754047851562
5.65341740201097,2.9496564453125,8.64306799316406,3.141192578125
5.6556085139902,3.38540114746094,8.43237824707031,2.92571442871094
5.65779962596942,3.04063610839844,8.49941589355469,3.05978972167969
5.65999073794865,2.96402165527344,8.42280144042969,3.05500131835937
5.66225125552675,2.75333190917969,8.38449421386719,2.99275207519531
5.66451177310485,2.89219560546875,8.40364782714844,2.76290871582031
5.66677229068296,3.00711728515625,8.504204296875,2.67671745605469
5.66911044725847,3.04542451171875,8.61433757324219,2.7581203125
5.67144860383398,3.28005627441406,8.57124194335938,2.74375510253906
5.67378676040948,3.26090266113281,8.59039555664062,2.68629426269531
5.6762024697194,2.74375510253906,8.78193168945312,2.71502468261719
5.67861817902932,2.78206232910156,8.85854614257812,2.49954653320312
5.68103388833924,2.46602770996094,9.25598361816406,2.49475812988281
5.68345437683752,2.63841022949219,9.35175168457031,2.36547124023437
5.68587486533579,2.55700737304687,9.5001921875,2.45645090332031
5.68829535383406,2.7198130859375,9.35654008789063,2.35110603027344
5.69071814465976,2.6431986328125,9.49540378417969,2.21703073730469
5.69314093548545,1.99197578125,9.87368764648437,2.44687409667969
5.69556372631115,2.30801040039062,9.90241806640625,2.38462485351562
5.69798773939528,2.39420166015625,9.82580361328125,2.45645090332031
5.70041175247941,2.58573779296875,9.60074865722656,2.42772048339844
5.70283576556354,3.25132585449219,9.39963571777344,2.61925661621094
5.70526086646596,5.00866987304688,8.71968244628906,2.96881005859375
5.70768596736838,1.85790048828125,8.99740983886719,2.88261879882812
5.71011106827081,0.3064578125,9.53371101074219,2.1835119140625
5.71253019006981,1.02471831054687,9.26556042480469,1.99197578125
5.71494931186882,1.4939818359375,9.04050546875,2.31758720703125
5.71736843366783,1.92972653808594,8.87769975585937,2.834734765625
5.72221546893261,1.10612116699219,8.9255837890625,3.18428820800781
5.72706250419738,1.11569797363281,9.05487067871094,3.11725056152344
5.73190953946215,1.50355864257812,9.2320416015625,3.13640417480469
5.73914828333161,3.447650390625,10.7499654541016,2.34631762695312
5.74638702720106,3.55778366699219,10.6972930175781,2.50433493652344
5.75362577107052,3.52426484375,10.5392757080078,2.58094938964844
5.75596537464043,3.62960971679687,10.3764699951172,2.69108266601562
5.75830497821033,3.57693728027344,10.1466266357422,2.82036955566406
5.76064458178024,3.25132585449219,9.95030209960937,2.92571442871094
5.76287510679111,2.99754047851562,9.75397756347656,2.85388837890625
5.76510563180199,3.06936652832031,9.41400092773437,2.74375510253906
5.76733615681286,3.064578125,9.16500395507812,2.86825358886719
5.76953048206241,3.23696064453125,8.91600698242187,2.987963671875
5.77172480731195,3.53384165039062,8.68137521972656,3.31836350097656
5.7739191325615,3.73974299316406,8.58560715332031,3.35667072753906
5.77611544641784,3.53863005371094,8.55208833007812,3.58172568359375
5.77831176027418,3.45243879394531,8.62391437988281,3.69664736328125
5.78050807413052,3.41413156738281,8.73404765625,3.64876333007812
5.782769750183,3.39976635742187,8.83939252929687,3.52426484375
5.78503142623547,3.51947644042969,8.92079538574219,3.46201560058594
5.78729310228795,3.57214887695312,9.05487067871094,3.51468803710937
5.78951938576235,3.6391865234375,9.06444748535156,3.50032282714844
5.79174566923676,3.6391865234375,9.22246479492187,3.52426484375
5.79397195271116,3.51468803710937,9.32780966796875,3.45243879394531
5.79616172506362,3.19865341796875,9.44751975097656,3.3327287109375
5.79835149741607,3.03584770507812,9.43315454101563,3.19865341796875
5.80054126976853,2.75333190917969,9.48103857421875,3.11725056152344
5.80273149805512,2.52348854980469,9.576806640625,2.95444484863281
5.8049217263417,2.32716401367187,9.62469067382813,2.84909997558594
5.80711195462828,2.18830031738281,9.52892260742187,2.84431157226562
5.80930361114351,2.11168586425781,9.53371101074219,2.834734765625
5.81149526765874,2.29843359375,9.5384994140625,2.86825358886719
5.81368692417396,2.31758720703125,9.50976899414063,2.96402165527344
5.81595060418702,2.33195241699219,9.57201823730469,3.05978972167969
5.81821428420007,2.33195241699219,9.58638344726563,3.19865341796875
5.82047796421313,2.43729729003906,9.49540378417969,3.31836350097656
5.82274349584893,2.60010300292969,9.26077202148437,3.28005627441406
5.82500902748474,2.63362182617187,9.16500395507812,3.35667072753906
5.82727455912055,2.69108266601562,9.06923588867187,3.41413156738281
5.82954115505275,2.65756384277344,8.98304462890625,3.48116921386719
5.83180775098494,2.66714064941406,8.82981572265625,3.36624753417969
5.83407434691713,2.7964275390625,8.6957404296875,3.22259543457031
5.83634143941926,2.80600434570312,8.57124194335938,3.31836350097656
5.83860853192139,2.681505859375,8.59997236328125,3.24174904785156
5.84087562442352,2.57137258300781,8.56645354003906,3.10767375488281
5.84314260076904,2.62404501953125,8.52814631347656,2.99754047851562
5.84540957711456,2.49954653320312,8.44674345703125,2.95923325195312
5.84767655346008,2.49954653320312,8.44674345703125,2.81079274902344
5.85001239623354,2.50433493652344,8.50899270019531,2.93529123535156
5.85234823900701,2.51870014648437,8.4658970703125,2.90656081542969
5.85468408178048,2.63362182617187,8.55208833007812,2.987963671875
5.85702115675878,2.73417829589844,8.52335791015625,3.13161577148437
5.85935823173708,2.7198130859375,8.67179841308594,3.21301862792969
5.86169530671538,2.78685073242187,8.82023891601562,3.38540114746094
5.86395983883341,3.26090266113281,8.68616362304688,3.39976635742187
5.86622437095144,3.84508786621094,8.5425115234375,3.34230551757812
5.86848890306948,3.46680400390625,8.45153186035156,3.46680400390625
5.87068148602306,3.04542451171875,8.39407102050781,3.45243879394531
5.87287406897665,2.7964275390625,8.55687673339844,3.46201560058594
5.87506665193024,2.74854350585938,8.59997236328125,3.52426484375
5.87725898417854,2.83952316894531,8.59997236328125,3.64876333007812
5.87945131642685,2.98317526855469,8.67179841308594,3.59130249023437
5.88164364867515,3.40455476074219,8.67179841308594,3.50032282714844
5.88398397213433,3.3710359375,8.55687673339844,3.600879296875
5.88632429559351,3.28005627441406,8.42280144042969,3.27526787109375
5.88866461905269,3.45722719726562,8.52335791015625,2.82515795898437
5.89100376732739,3.27047946777344,8.67658681640625,2.7581203125
5.89334291560209,3.16513459472656,8.89206496582031,2.60010300292969
5.89568206387679,2.91613762207031,9.33738647460937,2.4516625
5.8980183741524,3.12682736816406,9.63905588378906,2.38462485351562
5.90035468442801,3.39018955078125,9.98860932617187,2.7198130859375
5.90269099470362,3.10767375488281,10.1945106689453,2.92092602539062
5.90502570336251,3.26090266113281,10.2854903320312,3.12203896484375
5.90736041202139,2.80121594238281,10.5153336914062,2.75333190917969
5.90969512068028,2.82515795898437,10.3716815917969,3.16034619140625
5.91202546764481,3.08852014160156,10.1562034423828,3.16034619140625
5.91435581460934,2.60489140625,10.0604353759766,2.36547124023437
5.91668616157386,1.74297880859375,9.88805285644531,1.48440502929687
5.91899056393116,1.27850368652344,9.78270798339844,1.16358200683594
5.92129496628845,1.33117612304687,9.65342109375,1.42215578613281
5.92359936864574,2.02549460449219,9.64863269042969,2.26970317382813
5.92588210529938,2.43250888671875,9.80665,2.63841022949219
5.92816484195303,2.13083947753906,9.91678327636719,2.95923325195312
5.93044757860667,2.29843359375,9.89762966308594,3.15076938476562
5.93621649117726,3.98873996582031,8.77714328613281,3.25132585449219
5.94198540374784,3.67749375,8.91121857910156,3.63439812011719
5.94775431631842,3.34230551757812,9.02135185546875,3.600879296875
5.95002065312398,3.06936652832031,9.1554271484375,3.70143576660156
5.95228698992954,2.92571442871094,9.24640681152344,3.59130249023437
5.95455332673509,3.0262708984375,9.30386765136719,3.62482131347656
5.95689380221252,3.19865341796875,9.25598361816406,3.66312854003906
5.95923427768995,3.65834013671875,9.05008227539062,3.59130249023437
5.96157475316738,3.82114584960937,8.82981572265625,3.53384165039062
5.9639160471127,3.7158009765625,8.71010563964844,3.4093431640625
5.96625734105802,3.45722719726562,8.67179841308594,3.37582434082031
5.96859863500333,3.00711728515625,8.79629689941406,3.42849677734375
5.9709034462555,2.59052619628906,8.98304462890625,3.2561142578125
5.97320825750766,2.8730419921875,9.05965908203125,3.28005627441406
5.97551306875982,3.447650390625,9.117119921875,3.46680400390625
5.97774330443694,3.50032282714844,9.14106193847656,3.75889660644531
5.97997354011405,3.53384165039062,9.32780966796875,3.754108203125
5.98220377579116,3.69185895996094,9.33259807128906,3.64397492675781
5.98439374275078,3.49553442382812,9.48103857421875,3.72058937988281
5.98658370971039,3.28005627441406,9.61990227050781,3.61524450683594
5.98877367667001,3.24174904785156,9.65820949707031,3.47638081054687
5.99096053609927,2.90656081542969,9.73961235351562,3.30399829101562
5.99314739552854,2.78685073242187,9.7683427734375,3.13161577148437
5.99533425495781,2.73896669921875,9.75397756347656,3.11725056152344
5.997521945496,2.70544787597656,9.83538041992187,2.86346518554687
5.99970963603418,2.33195241699219,9.90720646972656,2.91613762207031
6.00189732657236,2.15956989746094,9.89284125976562,2.94486804199219
6.00526055321626,1.72861359863281,9.58159504394531,2.83952316894531
6.00862377986016,1.838746875,9.39484731445313,2.77727392578125
6.01198700650406,1.838746875,9.20809958496094,2.92092602539062
6.01431798469414,1.78607443847656,9.09317790527344,3.00232888183594
6.01664896288421,1.77649763183594,9.01177504882812,2.99754047851562
6.01897994107429,1.84353527832031,8.91600698242187,2.987963671875
6.02131593269212,2.27927998046875,8.75798967285156,3.06936652832031
6.02365192430995,2.7198130859375,8.73883605957031,3.27047946777344
6.02598791592777,3.0262708984375,8.74362446289062,3.46680400390625
6.028319415765,3.47638081054687,8.61433757324219,3.5625720703125
6.03065091560223,3.73495458984375,8.64785639648438,3.62003291015625
6.03298241543946,3.81156904296875,8.74362446289062,3.84508786621094
6.03529058205189,4.09408483886719,8.78672009277344,3.89776030273437
6.03759874866432,4.17069929199219,8.92079538574219,3.88339509277344
6.03990691527674,3.9456443359375,9.07402429199219,3.81635744628906
6.0421906402659,3.94085593261719,9.18415756835937,3.69664736328125
6.04447436525506,3.83551105957031,9.27513723144531,3.56736047363281
6.04675809024423,3.68228215332031,9.41878933105469,3.54820686035156
6.04896003311535,3.4859576171875,9.53371101074219,3.47159240722656
6.05116197598647,3.16513459472656,9.576806640625,3.35667072753906
6.0533639188576,2.99275207519531,9.58159504394531,3.16513459472656
6.05545051933503,2.86825358886719,9.66299790039063,3.03105930175781
6.05753711981246,2.76769711914062,9.61990227050781,3.05500131835937
6.05962372028989,2.83952316894531,9.54328781738281,2.89698400878906
6.06380737854723,2.59531459960937,9.33259807128906,3.31357509765625
6.06799103680457,2.65756384277344,9.22725319824219,3.28484467773437
6.0721746950619,2.63841022949219,9.23683000488281,3.294421484375
6.07428162301331,2.51870014648437,9.16021555175781,3.28963308105469
6.07638855096472,2.4133552734375,9.08838950195312,3.2561142578125
6.07849547891612,2.40377846679687,9.05965908203125,3.15076938476562
6.08060232912229,2.40856687011719,9.06923588867187,3.15555778808594
6.08270917932847,2.39420166015625,9.0788126953125,3.05978972167969
6.08481602953464,2.49475812988281,9.04050546875,3.064578125
6.08692347741059,2.46602770996094,9.06444748535156,3.00711728515625
6.08903092528654,2.51870014648437,9.10275471191406,3.03105930175781
6.09113837316249,2.53306535644531,8.99262143554687,3.10767375488281
6.09324896019859,2.58094938964844,9.02614025878906,3.24653745117187
6.09535954723469,2.78206232910156,8.93516059570312,3.39497795410156
6.09747013427079,3.064578125,8.76756647949219,3.53863005371094
6.09964889783415,3.02148249511719,8.78193168945312,3.76847341308594
6.1018276613975,2.86346518554687,8.63349118652344,3.84508786621094
6.10400642496086,2.86825358886719,8.33661018066406,3.87860668945312
6.10618669210493,2.84431157226562,8.0062103515625,3.8690298828125
6.108366959249,3.20823022460938,7.97269152832031,3.62003291015625
6.11054722639308,3.18428820800781,8.39407102050781,3.51468803710937
6.11272825384535,3.52426484375,8.76277807617187,3.70622416992187
6.11490928129761,3.59609089355469,9.270348828125,3.69185895996094
6.11709030874988,3.31357509765625,9.64863269042969,3.80678063964844
6.11927238296861,2.94007963867187,9.7683427734375,3.66312854003906
6.12145445718734,2.78685073242187,9.72045874023437,3.58172568359375
6.12363653140608,3.01669409179687,9.66299790039063,3.52905324707031
6.1257966541925,3.22259543457031,9.6151138671875,3.64876333007812
6.12795677697893,3.59130249023437,9.44273134765625,3.73495458984375
6.13011689976536,3.73495458984375,9.42836613769531,3.7924154296875
6.1323956392836,3.75889660644531,9.41878933105469,3.70143576660156
6.13467437880185,3.46201560058594,9.50976899414063,3.65834013671875
6.13695311832009,3.36624753417969,9.58159504394531,3.53863005371094
6.13920988969596,3.09330854492187,9.60074865722656,3.447650390625
6.14146666107183,3.1028853515625,9.55765302734375,3.45243879394531
6.1437234324477,3.25132585449219,9.48103857421875,3.39976635742187
6.14597863112389,3.2561142578125,9.32302126464844,3.47159240722656
6.14823382980008,3.14598098144531,9.17936916503906,3.48116921386719
6.15048902847627,3.05978972167969,9.0021982421875,3.39018955078125
6.15289523387995,3.01190568847656,8.87769975585937,3.31357509765625
6.15530143928364,2.91613762207031,8.76756647949219,3.31357509765625
6.15770764468732,2.90177241210937,8.67179841308594,3.34230551757812
6.16011423648414,2.84431157226562,8.72925925292969,3.35667072753906
6.16252082828097,2.83952316894531,8.70531723632812,3.36145913085937
6.16492742007779,2.81079274902344,8.65264479980469,3.47638081054687
6.16740803466113,2.88261879882812,8.67179841308594,3.52905324707031
6.16988864924447,2.82036955566406,8.70531723632812,3.57693728027344
6.17236926382782,2.75333190917969,8.71010563964844,3.59130249023437
6.17479346413162,2.74854350585938,8.66701000976562,3.49074602050781
6.17721766443541,2.72460148925781,8.62870278320312,3.54820686035156
6.17964186473921,3.05021291503906,8.49462749023438,3.52426484375
6.18569422161858,2.7198130859375,8.22647690429687,3.89297189941406
6.19174657849794,2.78685073242187,8.24563051757812,3.83072265625
6.19779893537731,2.67671745605469,8.25520732421875,3.80199223632812
6.20021686929656,2.93529123535156,8.25041892089844,3.88818349609375
6.20263480321582,2.84909997558594,8.30787976074219,3.93606752929687
6.20505273713508,2.89698400878906,8.34139858398438,3.87860668945312
6.20743677983256,2.89219560546875,8.33661018066406,3.87860668945312
6.20982082253005,2.62404501953125,8.44195505371094,3.87860668945312
6.21220486522753,2.55221896972656,8.51378110351562,3.79720383300781
6.22276475012887,2.5665841796875,9.09317790527344,4.00789357910156
6.23332463503021,2.57616098632812,9.14106193847656,4.10845004882813
6.24388451993156,2.60967980957031,9.13148513183594,4.13718046875
6.24608155129005,2.87783039550781,9.05487067871094,4.08929643554688
6.24827858264854,3.36145913085937,8.85375773925781,4.01268198242188
6.25047561400703,3.06936652832031,8.89685336914062,4.08450803222656
6.25607872500967,2.48039291992187,8.13549724121094,4.18506450195312
6.26168183601231,2.45645090332031,8.14028564453125,4.31435139160156
6.26728494701496,2.34152922363281,8.29351455078125,4.41490786132812
6.26954647435876,2.24097275390625,8.40843623046875,4.64953962402344
6.27180800170256,2.08774384765625,8.47547387695312,4.66869323730469
6.27406952904636,1.96324536132812,8.59039555664062,4.73573088378906
6.27633078653338,1.81959326171875,8.67658681640625,4.75967290039062
6.2785920440204,1.85790048828125,8.70531723632812,4.68305844726562
6.28085330150742,1.86747729492187,8.71010563964844,4.6351744140625
6.28310130614068,1.87226569824219,8.67658681640625,4.5585599609375
6.28534931077395,1.838746875,8.73404765625,4.56813676757812
6.28759731540721,1.915361328125,8.66701000976562,4.56334836425781
6.28978796910729,1.92014973144531,8.61433757324219,4.55377155761719
6.29197862280737,1.8004396484375,8.59039555664062,4.54419475097656
6.29416927650744,1.82917006835937,8.58560715332031,4.47715710449219
6.29637250939594,1.86747729492187,8.59518395996094,4.42927307128906
6.29857574228444,1.92972653808594,8.43716665039062,4.49631071777344
6.30077897517293,1.97282216796875,8.30309135742187,4.52982954101562
6.302969023567,2.04943662109375,8.20253488769531,4.54898315429687
6.30515907196106,2.08295544433594,8.12113203125,4.5968671875
6.30734912035513,2.16914670410156,7.99663354492187,4.51067592773437
6.30946230329783,2.32237561035156,7.99184514160156,4.5585599609375
6.31157548624054,2.39899006347656,7.891288671875,4.55377155761719
6.31368866918325,2.43729729003906,7.87213505859375,4.57771357421875
6.31572473162894,2.46602770996094,7.81467421875,4.56334836425781
6.31776079407463,2.35110603027344,7.78115539550781,4.62080920410156
6.31979685652033,2.28885678710938,7.75721337890625,4.63996281738281
6.32183240410061,2.20745393066406,7.71411774902344,4.64475122070312
6.3238679516809,2.10210905761719,7.6614453125,4.53461794433594
6.32590349926119,2.09253225097656,7.63750329589844,4.5585599609375
6.32801046139228,1.99197578125,7.47948598632812,4.61123239746094
6.33011742352337,1.93930334472656,7.46033237304687,4.56813676757812
6.33222438565446,1.99676418457031,7.30231506347656,4.52504113769531
6.33433448108635,2.09253225097656,7.18260498046875,4.65911643066406
6.33644457651824,2.07337863769531,6.96712683105469,4.5968671875
6.33855467195013,1.92014973144531,6.94797321777344,4.54419475097656
6.34066768552438,1.94888015136719,6.79953271484375,4.48673391113281
6.34278069909863,1.92972653808594,6.73728347167969,4.39575424804687
6.34489371267288,2.01591779785156,6.6271501953125,4.35265861816406
6.34700859814377,2.01591779785156,6.58405456542969,4.43884987792969
6.34912348361467,1.92493813476562,6.40209523925781,4.44363828125
6.35123836908557,1.82917006835937,6.37815322265625,4.42927307128906
6.35335417690889,1.838746875,6.28238515625,4.49152231445312
6.35546998473222,1.85790048828125,6.12436784667969,4.62559760742187
6.35758579255554,1.84832368164062,5.97592734375,4.5585599609375
6.35992078349517,1.88663090820312,5.76523759765625,4.59207878417969
6.3622557744348,1.8770541015625,5.54018264160156,4.673481640625
6.36459076537443,1.89141931152344,5.32949289550781,4.73573088378906
6.36692296471978,1.838746875,5.16189877929687,4.84586416015625
6.36925516406512,1.81480485839844,5.13795676269531,4.73573088378906
6.37158736341047,1.75734401855469,5.02303508300781,4.66390483398437
6.37390588661289,1.5322890625,4.92247861328125,4.42448466796875
6.37622440981532,1.25456166992187,4.83149895019531,4.39096584472656
6.37854293301774,1.11569797363281,4.69742365722656,4.290409375
6.38084778799826,0.90021982421875,4.57292517089844,4.20900651855469
6.38315264297878,0.569819995117188,4.47715710449219,4.4053310546875
6.38545749795929,0.253785375976562,4.46758029785156,4.23294853515625
6.38774867354166,0.196324536132812,4.49631071777344,4.20421811523437
6.39003984912402,0.0,4.50109912109375,4.19942971191406
6.39233102470638,-0.047884033203125,4.57292517089844,4.19942971191406
6.39460844070392,-0.0814028564453125,4.54898315429687,4.04141240234375
6.39688585670147,-0.186747729492187,4.57292517089844,4.19942971191406
6.39916327269901,-0.3447650390625,4.68305844726562,3.9839515625
6.40143804174195,-0.464475122070312,4.75967290039062,3.91212551269531
6.40371281078488,-0.59376201171875,4.86980617675781,3.81635744628906
6.40598757982781,-0.59376201171875,4.91769020996094,3.69185895996094
6.41767072587809,0.914585034179687,4.65911643066406,3.50032282714844
6.42935387192837,0.818816967773437,4.61602080078125,3.49553442382812
6.44103701797866,0.799663354492188,4.98472785644531,3.34230551757812
6.44338105801768,0.713472094726562,5.13795676269531,3.35667072753906
6.4457250980567,0.675164868164063,5.22893642578125,2.88740720214844
6.44806913809572,0.636857641601562,5.11880314941406,2.82036955566406
6.45041265149634,0.636857641601562,4.7884033203125,2.82036955566406
6.45275616489696,0.397437475585937,5.30555087890625,2.71023627929688
6.45509967829759,0.0909796630859375,5.22414802246094,2.70544787597656
6.45741046226023,-0.282515795898438,5.42526096191406,2.35589443359375
6.45972124622288,-0.74699091796875,5.85621726074219,2.14041628417969
6.46203203018553,-0.545877978515625,5.72214196777344,1.90578452148437
6.46431071388776,-0.253785375976562,5.7843912109375,2.02070620117187
6.46658939758998,0.05746083984375,5.57848986816406,2.20266552734375
6.46886808129221,0.416591088867187,5.1714755859375,2.50912333984375
6.47114621405048,0.483628735351562,4.58729038085937,2.94486804199219
6.47342434680875,0.397437475585937,4.47715710449219,3.08373173828125
6.47570247956702,-0.0383072265625,4.49631071777344,3.21780703125
6.47798130595593,-1.28329208984375,5.18105239257812,2.63362182617187
6.48026013234484,0.0430956298828125,5.06613071289062,2.74854350585938
6.48253895873376,0.55545478515625,5.15711037597656,3.00711728515625
6.48832950853853,6.72770666503906,4.80755693359375,4.367023828125
6.4941200583433,3.91691391601562,5.07570751953125,4.826710546875
6.49991060814807,-0.74699091796875,2.83952316894531,4.66390483398437
6.50217821372526,-2.34152922363281,4.19464130859375,3.38540114746094
6.50444581930246,-4.14196887207031,6.39251843261719,-1.07260234375
6.50671342487965,-3.26090266113281,6.971915234375,-2.32237561035156
6.50898049226244,-0.36391865234375,7.68059892578125,-0.97683427734375
6.51124755964524,2.61446821289062,7.7763669921875,2.17393510742187
6.51351462702803,4.14675727539062,7.68059892578125,4.77882651367187
6.51578180953671,3.54820686035156,7.04374128417969,5.63595070800781
6.51804899204539,2.85867678222656,6.34942280273437,4.98951625976563
6.52031617455407,2.42293208007812,5.52102902832031,4.01268198242188
6.52258461921554,1.84353527832031,4.90811340332031,2.97838686523437
6.524853063877,0.646434448242187,4.41490786132812,2.11168586425781
6.52712150853847,1.38863696289062,4.77882651367187,1.08696755371094
6.52945929933704,1.38863696289062,5.42047255859375,2.24097275390625
6.53179709013561,2.13083947753906,4.83149895019531,3.22738383789062
6.53413488093418,2.44208569335937,5.4013189453125,3.84508786621094
6.5364038503352,2.70544787597656,5.14274516601562,3.96479794921875
6.53867281973623,2.54264216308594,4.49631071777344,4.20421811523437
6.54094178913726,2.03985981445312,4.37181223144531,3.86424147949219
6.54313306073016,2.77727392578125,4.54419475097656,4.29519777832031
6.54532433232305,2.73417829589844,4.87459458007812,4.93205541992188
6.54751560391594,2.7581203125,4.93684382324219,5.06134230957031
6.54962951754445,2.60967980957031,4.67827004394531,5.2097828125
6.55174343117297,2.50433493652344,4.59207878417969,4.75488449707031
6.55385734480149,3.32794030761719,4.47715710449219,3.83072265625
6.55596647728843,4.213794921875,5.28160886230469,3.65355173339844
6.55807560977538,4.62559760742187,5.95198532714844,4.22816013183594
6.56018474226232,4.35744702148437,6.37815322265625,5.0182466796875
6.56243964872939,3.91691391601562,6.91924279785156,4.88417138671875
6.56469455519645,3.65834013671875,7.24485422363281,4.57771357421875
6.56694946166351,3.68228215332031,7.66623371582031,4.34308181152344
6.5692054427833,3.82114584960937,7.72848295898437,4.2521021484375
6.57146142390309,3.83072265625,7.58961926269531,4.10366164550781
6.57371740502288,3.62960971679687,7.15866296386719,4.45321508789062
6.57597309740568,3.64876333007812,6.95755002441406,4.43406147460937
6.57822878978849,3.54820686035156,6.56968935546875,4.89853659667969
6.5804844821713,3.05500131835937,6.27759675292969,4.77882651367187
6.58274017553068,2.65277543945312,6.11957944335937,4.91290180664063
6.58499586889006,2.29364519042969,6.11957944335937,4.91290180664063
6.58725156224943,2.15956989746094,6.00465776367187,4.63038601074219
6.58955029141612,2.22660754394531,5.97592734375,4.7884033203125
6.5918490205828,2.45645090332031,6.12915625,4.77882651367187
6.59414774974948,2.65756384277344,6.07169541015625,5.16189877929687
6.59642174464966,3.09330854492187,6.42124885253906,5.50666381835937
6.59869573954984,3.28484467773437,6.33505759277344,5.66946953125
6.60096973445002,3.26569106445312,6.54574733886719,5.79875642089844
6.60779170938486,3.80678063964844,9.75876596679687,6.30632717285156
6.61461368431969,4.45321508789062,9.40442412109375,7.02937607421875
6.62143565925453,4.41011945800781,9.25119521484375,7.14908615722656
6.62370988549151,3.86424147949219,9.1554271484375,6.67982263183594
6.62598411172849,3.38061274414062,9.21767639160156,6.38294162597656
6.62825833796546,3.08852014160156,9.14585034179687,6.11957944335937
6.63053305020503,2.88261879882812,9.25119521484375,5.94719692382813
6.6328077624446,2.78685073242187,9.66778630371094,6.358999609375
6.63508247468417,3.13640417480469,9.95030209960937,6.54095893554687
6.6373552663509,3.4859576171875,10.1274730224609,6.64151540527344
6.63962805801763,3.50032282714844,10.189722265625,6.69897624511719
6.64190084968436,3.50989963378906,10.2184526855469,6.64151540527344
6.64417125571731,3.71101257324219,10.2854903320312,6.44040246582031
6.64644166175026,3.72058937988281,10.0700121826172,6.65109221191406
6.64871206778321,3.43807358398437,9.98860932617187,6.92881960449219
6.65097722468431,3.38540114746094,9.730035546875,7.10599052734375
6.65324238158541,3.13161577148437,9.22725319824219,7.24485422363281
6.65550753848652,3.01190568847656,8.97825622558594,7.24485422363281
6.65777303837801,3.05500131835937,8.8489693359375,7.3932947265625
6.66003853826949,3.15555778808594,8.6191259765625,7.72848295898437
6.66230403816098,3.43328518066406,8.4658970703125,8.49462749023438
6.66456954564796,3.52426484375,8.18338127441406,8.39885942382812
6.66683505313495,3.59130249023437,8.41322463378906,8.05888278808594
6.66910056062193,3.52426484375,8.25041892089844,7.55131203613281
6.67136598857329,3.50989963378906,8.20732329101562,7.738059765625
6.67363141652466,3.73016618652344,8.10676682128906,8.15465085449219
6.67589684447603,3.92649072265625,8.37491740722656,8.14028564453125
6.67816226168528,3.97437475585937,8.32703337402344,8.10676682128906
6.68042767889453,3.62003291015625,8.2743609375,8.05409438476562
6.68269309610378,3.4093431640625,8.12113203125,7.69496413574219
6.68495723293101,3.51468803710937,7.82903942871094,7.78115539550781
6.68722136975824,3.73495458984375,7.86734665527344,7.86255825195312
6.68948550658547,3.7158009765625,8.14507404785156,7.92001909179687
6.69174987507502,3.83551105957031,8.20253488769531,8.29830295410156
6.69401424356458,3.9456443359375,8.44195505371094,8.06367119140625
6.69627861205413,3.81156904296875,8.39407102050781,8.11634362792969
6.69854291240131,3.66312854003906,8.84418093261719,7.70454094238281
6.70080721274849,3.76847341308594,8.68616362304688,7.67581052246094
6.70307151309567,3.96958635253906,8.49462749023438,7.68059892578125
6.70533599030925,4.18027609863281,8.73404765625,7.6997525390625
6.70760046752283,4.29519777832031,8.86333454589844,7.6614453125
6.70986494473641,4.39096584472656,8.77714328613281,7.89607707519531
6.71213027817824,4.48673391113281,9.17936916503906,7.86734665527344
6.71439561162007,4.53461794433594,9.65820949707031,7.67102211914062
6.7166609450619,4.57771357421875,9.6151138671875,7.87692346191406
6.7189266442806,4.77882651367187,9.67257470703125,7.83861623535156
6.7211923434993,4.82192214355469,10.1178962158203,7.79073220214844
6.72345804271799,4.75967290039062,10.1178962158203,7.85776984863281
6.7257231811728,4.74051928710937,10.1370498291016,7.90086547851562
6.72798831962761,4.56334836425781,10.2088758789062,7.81467421875
6.73025345808242,4.47715710449219,10.0077629394531,8.05409438476562
6.73251861161975,4.64475122070312,9.90720646972656,8.43237824707031
6.73478376515709,4.64475122070312,10.1274730224609,8.350975390625
6.73704891869443,4.44363828125,9.80186159667969,8.55687673339844
6.739313467414,4.2521021484375,9.63905588378906,8.77714328613281
6.74157801613357,4.16591088867187,9.54807622070313,8.86333454589844
6.74384256485314,4.18985290527344,9.56244143066406,9.19852277832031
6.74610777036529,3.99831677246094,9.63905588378906,9.40921252441406
6.74837297587745,3.87860668945312,9.64384428710937,9.423577734375
6.7506381813896,3.69185895996094,9.78749638671875,9.43794294433594
6.75282527340354,3.4093431640625,9.78749638671875,9.43794294433594
6.75501236541747,3.41891997070312,9.92636008300781,9.44273134765625
6.7571994574314,3.31357509765625,9.79707319335937,9.56244143066406
6.75938782179772,3.34230551757812,9.96466730957031,9.67257470703125
6.76157618616404,3.30878669433594,9.88805285644531,9.77791958007812
6.76376455053037,3.24653745117187,10.0029745361328,9.71088193359375
6.76595282212323,3.11246215820312,10.1992990722656,9.69651672363281
6.76814109371609,3.0262708984375,10.2567599121094,9.56722983398437
6.77032936530895,3.11246215820312,10.4004120117187,9.63426748046875
6.77251847251379,3.05978972167969,10.5009684814453,9.50976899414063
6.77470757971863,3.12203896484375,10.4626612548828,9.45709655761719
6.77689668692346,3.31836350097656,10.57279453125,9.576806640625
6.77908262464045,3.37582434082031,10.7595422607422,9.65820949707031
6.78126856235743,3.46201560058594,10.7882726806641,9.60074865722656
6.78345450007441,3.39976635742187,10.7260234375,9.5384994140625
6.78570729521334,3.447650390625,10.8265799072266,9.66299790039063
6.78796009035227,3.57693728027344,10.7212350341797,9.74440075683594
6.7902128854912,3.61045610351562,10.6685625976562,9.69651672363281
6.79247087811268,3.57214887695312,10.5153336914062,9.55765302734375
6.79472887073416,3.88339509277344,10.6446205810547,9.47625017089844
6.79698686335564,4.20900651855469,10.7978494873047,9.60074865722656
6.79922579183599,4.39575424804687,10.8840407470703,9.55765302734375
6.80146472031635,4.45321508789062,10.955866796875,9.58159504394531
6.8037036487967,4.57771357421875,10.9079827636719,9.61990227050781
6.80591342487909,4.75009609375,10.8074262939453,9.58638344726563
6.80812320096147,4.84586416015625,10.7164466308594,9.8449572265625
6.81033297704386,5.0182466796875,10.6637741943359,10.0460701660156
6.8125990943941,5.16668718261719,10.4626612548828,10.3956236083984
6.81486521174435,5.22414802246094,10.2854903320312,10.5392757080078
6.81713132909459,5.12837995605469,10.1753570556641,10.5967365478516
6.81936044253858,5.12837995605469,10.2711251220703,10.649408984375
6.82158955598256,5.21935961914062,10.2471831054687,10.6637741943359
6.82381866942654,5.26245524902344,10.3190091552734,10.7499654541016
6.82601008272951,5.26724365234375,10.4578728515625,10.7691190673828
6.82820149603248,5.25287844238281,10.5919481445312,10.7308118408203
6.83039290933544,5.25287844238281,10.8170031005859,10.7978494873047
6.83258382079375,5.28160886230469,10.9941740234375,10.7451770507812
6.83477473225205,5.19062919921875,11.2192289794922,10.7068698242187
6.83696564371036,5.07570751953125,11.4059767089844,10.8553103271484
6.83915735882539,5.04697709960938,11.5496288085937,10.9606552001953
6.84134907394042,4.99909306640625,11.7698953613281,10.9989624267578
6.84354078905545,4.98951625976563,11.8512982177734,10.9989624267578
6.84573463779674,5.02303508300781,11.8656634277344,10.9893856201172
6.84792848653802,5.12359155273437,11.9039706542969,11.03248125
6.85012233527931,5.20499440917969,11.9327010742188,11.0803652832031
6.85238084059614,5.36301171875,11.9662198974609,11.1809217529297
6.85463934591297,5.27203205566406,12.0667763671875,11.2288057861328
6.8568978512298,5.0948611328125,12.1338140136719,11.3724578857422
6.8591560381873,5.20499440917969,12.1529676269531,11.3485158691406
6.86141422514479,5.03261188964844,12.2726777099609,11.4873795654297
6.86367241210229,5.09007272949219,12.2583125,11.4825911621094
6.86598912214466,5.21935961914062,12.4594254394531,11.5544172119141
6.86830583218703,5.08049592285156,12.7515180419922,11.645396875
6.8706225422294,5.48272180175781,12.8855933349609,11.4394955322266
6.87289139813216,6.15788666992187,12.8855933349609,10.9654436035156
6.87516025403492,6.205770703125,13.2303583740234,10.7164466308594
6.87742910993768,6.45955607910156,13.6613146728516,10.6206785644531
6.87961962686476,5.48751020507812,14.5615344970703,11.2575362060547
6.88181014379184,4.33350500488281,15.4378123046875,12.4498486328125
6.88400066071893,4.90811340332031,14.9350299560547,13.0675526611328
6.88618653854007,5.39653054199219,14.2933839111328,13.0962830810547
6.88837241636122,4.98951625976563,13.4123177001953,12.6078659423828
6.89055829418237,4.58729038085937,12.6605383789062,12.1481792236328
6.89274320813634,4.62080920410156,12.3540805664062,12.0907183837891
6.89492812209032,4.68305844726562,12.4306950195312,12.2726777099609
6.89711303604429,4.8650177734375,12.8041904785156,12.2822545166016
6.89929727421702,4.98472785644531,13.3596452636719,12.181698046875
6.90148151238975,5.07091911621094,13.8624276123047,11.9710083007812
6.90366575056248,5.15232197265625,14.3987287841797,11.7267997314453
6.90584998548005,5.20020600585937,14.7291286132812,11.6693388916016
6.90803422039763,5.3247044921875,14.9829139892578,11.7076461181641
6.9102184553152,5.50666381835937,15.1122008789062,11.8943938476563
6.91357707182451,5.88015927734375,14.9302415527344,11.5639940185547
6.91693568833383,6.13394465332031,14.9829139892578,11.4634375488281
6.92029430484314,6.28717355957031,15.2702181884766,11.5496288085937
6.92253695910385,6.37336481933594,15.47611953125,11.7746837646484
6.92477961336457,6.49786330566406,15.5766760009766,11.8417214111328
6.92702226762528,6.46913288574219,15.6532904541016,11.875240234375
6.92922491718403,6.59841977539062,15.5910412109375,11.8896054443359
6.93142756674279,6.39251843261719,15.6293484375,12.0141039306641
6.93363021630154,6.30632717285156,15.5910412109375,12.1242372070312
6.93582294666174,6.37815322265625,15.4426007080078,12.2439472900391
6.93801567702195,6.46434448242187,15.322890625,12.1433908203125
6.94020840738216,6.50744011230469,15.2127573486328,12.0811415771484
6.94240092924628,6.46913288574219,15.2223341552734,11.9949503173828
6.94459345111039,6.53617053222656,15.4090818847656,11.9231242675781
6.94678597297451,6.52659372558594,15.6532904541016,11.9470662841797
6.94912601485819,6.57447775878906,16.0555163330078,12.0188923339844
6.95146605674186,6.63193859863281,16.2997249023437,12.0476227539062
6.95380609862553,6.75643708496094,16.4338001953125,12.0811415771484
6.95614540016639,7.00543405761719,16.4912610351562,12.0619879638672
6.95848470170724,7.23527741699219,16.4577422119141,12.0859299804687
6.96082400324809,7.22091220703125,16.3763393554687,12.2822545166016
6.96312833609316,7.39808312988281,16.4673190185547,12.2104284667969
6.96543266893822,7.50342800292969,16.3476089355469,12.2774661132812
6.96773700178329,7.49385119628906,16.3907045654297,12.2822545166016
