timestamp,accel_x (m/s2),accel_y (m/s2),accel_z (m/s2)
0.00260194807942711,0.129286889648437,10.0508585693359,0.01915361328125
0.00520389615885423,0.09576806640625,10.0460701660156,0.028730419921875
0.00780584423828135,0.148440502929687,10.0029745361328,0.009576806640625
0.0130189579535592,0.086191259765625,10.0077629394531,0.0047884033203125
0.018232071668837,0.124498486328125,10.0508585693359,-0.0143652099609375
0.0234451853841149,0.148440502929687,10.0317049560547,-0.0239420166015625
0.028659171061198,0.110133276367187,10.0221281494141,-0.105344873046875
0.0338731567382811,0.0622492431640625,10.0412817626953,0.0383072265625
0.0390871424153643,0.0909796630859375,10.0125513427734,-0.028730419921875
0.0443687242296003,0.124498486328125,9.97424411621094,-0.0622492431640625
0.0496503060438362,0.086191259765625,9.95509050292969,-0.0239420166015625
0.0549318878580722,0.09576806640625,9.97903251953125,0.009576806640625
0.0602167259657109,0.09576806640625,9.96945571289062,-0.009576806640625
0.0655015640733495,0.076614453125,10.0029745361328,0.009576806640625
0.0707864021809881,0.13407529296875,9.97903251953125,0.0143652099609375
0.0760721940646686,0.05746083984375,9.9981861328125,-0.0383072265625
0.081357985948349,0.05746083984375,10.0077629394531,-0.0909796630859375
0.0866437778320295,0.105344873046875,9.9981861328125,-0.009576806640625
0.0919302956271683,0.0909796630859375,9.98382092285156,-0.067037646484375
0.0972168134223071,0.0909796630859375,10.0029745361328,-0.0622492431640625
0.102503331217446,0.0909796630859375,10.0029745361328,-0.0143652099609375
0.107791870279946,0.0622492431640625,9.98860932617187,-0.0047884033203125
0.113080409342445,0.067037646484375,9.95509050292969,0.0
0.118368948404945,0.076614453125,10.0077629394531,-0.0814028564453125
0.123728870062931,0.110133276367187,10.0269165527344,0.0143652099609375
0.129088791720917,0.05746083984375,10.0077629394531,-0.0047884033203125
0.134448713378903,0.0718260498046875,9.99339772949219,-0.0335188232421875
0.139812552897131,0.09576806640625,9.99339772949219,-0.0047884033203125
0.14517639241536,0.0909796630859375,9.99339772949219,0.0143652099609375
0.150540231933589,0.0335188232421875,10.0077629394531,0.0143652099609375
0.155907806043832,0.0622492431640625,9.95987890625,0.0
0.161275380154075,0.086191259765625,9.98860932617187,-0.0335188232421875
0.166642954264318,0.076614453125,10.0173397460938,-0.0047884033203125
0.172014121907547,0.0718260498046875,10.0125513427734,-0.01915361328125
0.177385289550776,0.086191259765625,9.99339772949219,0.0
0.182756457194006,0.047884033203125,10.0269165527344,-0.0430956298828125
0.188130808973519,0.067037646484375,10.036493359375,-0.028730419921875
0.193505160753033,0.0909796630859375,9.98860932617187,-0.0430956298828125
0.198879512532547,0.0909796630859375,9.9981861328125,0.0239420166015625
0.204318354329422,0.0718260498046875,10.0077629394531,0.0047884033203125
0.209757196126297,0.0718260498046875,9.99339772949219,-0.0335188232421875
0.215196037923172,0.076614453125,9.98860932617187,-0.028730419921875
0.220636279242616,0.0814028564453125,9.97903251953125,0.01915361328125
0.226076520562061,0.086191259765625,10.0269165527344,-0.0335188232421875
0.231516761881505,0.0622492431640625,10.0125513427734,-0.028730419921875
0.2369579992947,0.0909796630859375,9.98860932617187,0.0526724365234375
0.242399236707894,0.100556469726563,10.0077629394531,-0.0622492431640625
0.247840474121088,0.0814028564453125,9.99339772949219,-0.0239420166015625
0.253282522623692,0.0526724365234375,10.0125513427734,0.0047884033203125
0.258724571126296,0.076614453125,9.96945571289062,-0.076614453125
0.2641666196289,0.0718260498046875,9.9981861328125,-0.0239420166015625
0.26961140901692,0.105344873046875,10.0125513427734,-0.05746083984375
0.275056198404941,0.0814028564453125,9.97424411621094,-0.0239420166015625
0.280500987792961,0.067037646484375,9.99339772949219,-0.0526724365234375
0.286017295627163,0.110133276367187,10.0077629394531,0.028730419921875
0.291533603461364,0.110133276367187,10.0221281494141,-0.0526724365234375
0.297049911295566,0.100556469726563,9.97903251953125,-0.028730419921875
0.302567915527336,0.086191259765625,10.0269165527344,-0.0383072265625
0.308085919759107,0.100556469726563,10.0029745361328,-0.0526724365234375
0.313603923990878,0.0814028564453125,9.98860932617187,-0.0335188232421875
0.319123024793829,0.09576806640625,9.96945571289062,-0.0047884033203125
0.324642125596781,0.100556469726563,10.0221281494141,0.0
0.330161226399732,0.13407529296875,9.98860932617187,-0.0047884033203125
0.335682383300774,0.110133276367187,9.97424411621094,-0.01915361328125
0.341203540201815,0.067037646484375,9.97424411621094,0.0
0.346724697102856,0.0814028564453125,9.99339772949219,0.0143652099609375
0.352249164767787,0.100556469726563,10.0125513427734,-0.047884033203125
0.357773632432717,0.105344873046875,9.98860932617187,-0.047884033203125
0.363298100097647,0.100556469726563,9.98382092285156,0.0
0.368892469780807,0.086191259765625,10.0077629394531,-0.067037646484375
0.374486839463966,0.086191259765625,9.9981861328125,-0.028730419921875
0.380081209147126,0.0430956298828125,10.0173397460938,-0.0239420166015625
0.385677470106327,0.086191259765625,10.0508585693359,0.0335188232421875
0.391273731065529,0.076614453125,10.0077629394531,-0.009576806640625
0.396869992024731,0.0814028564453125,9.9981861328125,0.0047884033203125
0.402467874294696,0.086191259765625,10.0269165527344,-0.028730419921875
0.408065756564661,0.05746083984375,10.0269165527344,-0.0430956298828125
0.413663638834627,0.105344873046875,9.9981861328125,-0.01915361328125
0.419262411621085,0.0718260498046875,9.98860932617187,-0.0239420166015625
0.424861184407543,0.086191259765625,9.98860932617187,-0.05746083984375
0.430459957194,0.110133276367187,9.9981861328125,0.0047884033203125
0.436060711317264,0.09576806640625,9.96945571289062,-0.0047884033203125
0.441661465440528,0.076614453125,9.99339772949219,-0.028730419921875
0.447262219563792,0.100556469726563,9.96945571289062,0.0
0.45293672639973,0.076614453125,9.9981861328125,0.028730419921875
0.458611233235668,0.0909796630859375,9.98382092285156,-0.0526724365234375
0.464285740071605,0.0814028564453125,10.0173397460938,0.0383072265625
0.469965274251292,0.067037646484375,10.0077629394531,-0.0383072265625
0.47564480843098,0.086191259765625,9.97903251953125,-0.067037646484375
0.481324342610667,0.09576806640625,9.98860932617187,0.028730419921875
0.487007346950944,0.076614453125,9.98382092285156,-0.0047884033203125
0.492690351291222,0.129286889648437,10.0173397460938,-0.0143652099609375
0.498373355631499,0.119710083007812,10.0269165527344,-0.0335188232421875
0.504058135579416,0.086191259765625,10.0125513427734,-0.05746083984375
0.509742915527332,0.0526724365234375,10.0029745361328,-0.0047884033203125
0.515427695475249,0.047884033203125,9.95509050292969,-0.0430956298828125
0.521113622667089,0.067037646484375,9.98382092285156,0.009576806640625
0.526799549858929,0.100556469726563,9.98382092285156,-0.009576806640625
0.532485477050769,0.0718260498046875,9.9981861328125,0.009576806640625
0.538237872884102,0.110133276367187,9.9981861328125,0.009576806640625
0.543990268717436,0.05746083984375,9.95987890625,-0.05746083984375
0.549742664550769,0.0718260498046875,9.9981861328125,-0.047884033203125
0.55550095925563,0.13407529296875,10.0077629394531,-0.009576806640625
0.561259253960491,0.047884033203125,9.9981861328125,0.028730419921875
0.567017548665352,0.0814028564453125,9.9981861328125,-0.0047884033203125
0.572777992458755,0.0909796630859375,9.95987890625,-0.028730419921875
0.578538436252157,0.0814028564453125,9.96945571289062,-0.0239420166015625
0.58429888004556,0.100556469726563,10.0173397460938,-0.009576806640625
0.590060768717434,0.086191259765625,10.0029745361328,-0.01915361328125
0.595822657389309,0.105344873046875,10.0125513427734,-0.0335188232421875
0.601584546061184,0.124498486328125,9.97424411621094,-0.0383072265625
0.607347495822468,0.086191259765625,10.0077629394531,0.01915361328125
0.613110445583753,0.129286889648437,10.0125513427734,0.0
0.618873395345038,0.138863696289063,9.9981861328125,0.0143652099609375
0.62470226708983,0.0814028564453125,10.0173397460938,-0.0383072265625
0.630531138834622,0.0718260498046875,10.0508585693359,-0.0047884033203125
0.636360010579414,0.110133276367187,10.0029745361328,0.028730419921875
0.642190933865004,0.100556469726563,9.9981861328125,-0.0239420166015625
0.648021857150594,0.09576806640625,9.98382092285156,-0.028730419921875
0.653852780436185,0.0909796630859375,9.98382092285156,-0.067037646484375
0.659684974663615,0.1149216796875,10.0125513427734,0.0335188232421875
0.665517168891046,0.0622492431640625,9.9981861328125,-0.009576806640625
0.671349363118476,0.067037646484375,10.0125513427734,0.009576806640625
0.677182944715698,0.105344873046875,9.98382092285156,0.0430956298828125
0.68301652631292,0.0909796630859375,10.0317049560547,-0.0335188232421875
0.688850107910143,0.09576806640625,10.0029745361328,-0.01915361328125
0.694685784993476,0.105344873046875,9.9981861328125,0.0
0.700521462076809,0.076614453125,10.0269165527344,-0.0239420166015625
0.706357139160143,0.0718260498046875,9.97903251953125,0.0335188232421875
0.71226448725042,0.0526724365234375,9.96945571289062,0.009576806640625
0.718171835340698,0.100556469726563,10.0173397460938,-0.01915361328125
0.724079183430976,0.100556469726563,9.96945571289062,0.0143652099609375
0.729989804524726,0.047884033203125,10.0029745361328,-0.0143652099609375
0.735900425618476,0.076614453125,9.96945571289062,-0.0143652099609375
0.741811046712226,0.0814028564453125,9.9981861328125,0.0
0.747723002332886,0.0718260498046875,9.98860932617187,0.0047884033203125
0.753634957953546,0.0909796630859375,10.0317049560547,-0.0143652099609375
0.759546913574206,0.09576806640625,9.9981861328125,0.0239420166015625
0.765459938205282,0.0814028564453125,10.0077629394531,-0.009576806640625
0.771372962836358,0.076614453125,9.9981861328125,-0.0239420166015625
0.777285987467434,0.0909796630859375,10.0269165527344,-0.0335188232421875
0.783200017740871,0.100556469726563,10.0029745361328,0.05746083984375
0.789114048014308,0.0526724365234375,10.0173397460938,-0.0526724365234375
0.795028078287745,0.09576806640625,10.0221281494141,-0.028730419921875
0.801014190375419,0.0814028564453125,10.0125513427734,-0.01915361328125
0.807000302463093,0.119710083007812,9.96466730957031,-0.047884033203125
0.812986414550767,0.100556469726563,9.97903251953125,0.0047884033203125
0.818976324598509,0.0814028564453125,9.97903251953125,-0.01915361328125
0.824966234646252,0.0814028564453125,10.0173397460938,-0.047884033203125
0.830956144693995,0.119710083007812,9.9981861328125,-0.0526724365234375
0.836949034125419,0.105344873046875,9.99339772949219,-0.0143652099609375
0.842941923556842,0.0622492431640625,9.9981861328125,-0.028730419921875
0.848934812988266,0.110133276367187,10.0269165527344,-0.047884033203125
0.854930046929238,0.0383072265625,9.99339772949219,-0.0047884033203125
0.86092528087021,0.100556469726563,10.0029745361328,-0.0622492431640625
0.866920514811182,0.105344873046875,9.99339772949219,-0.0047884033203125
0.872917285536008,0.0718260498046875,9.97903251953125,-0.01915361328125
0.878914056260835,0.0814028564453125,10.0077629394531,0.047884033203125
0.884910826985661,0.0718260498046875,9.9981861328125,0.0
0.890978918240001,0.0909796630859375,10.0173397460938,0.047884033203125
0.897047009494341,0.129286889648437,9.98382092285156,-0.067037646484375
0.903115100748681,0.0718260498046875,10.0317049560547,-0.0239420166015625
0.909186544216563,0.09576806640625,10.0221281494141,-0.0383072265625
0.915257987684445,0.100556469726563,9.98382092285156,0.0335188232421875
0.921329431152327,0.0718260498046875,10.036493359375,-0.01915361328125
0.927402433322466,0.05746083984375,10.0077629394531,-0.076614453125
0.933475435492604,0.0430956298828125,10.0317049560547,-0.047884033203125
0.939548437662743,0.09576806640625,10.0173397460938,-0.0047884033203125
0.945625417697465,0.100556469726563,10.0029745361328,-0.086191259765625
0.951702397732187,0.076614453125,9.9981861328125,0.009576806640625
0.957779377766909,0.047884033203125,10.0029745361328,0.0
0.963858105414478,0.110133276367187,10.0269165527344,0.0047884033203125
0.969936833062047,0.0909796630859375,10.0221281494141,0.0622492431640625
0.976015560709617,0.13407529296875,9.9981861328125,0.0047884033203125
0.982160057454408,0.076614453125,9.99339772949219,-0.0143652099609375
0.988304554199199,0.09576806640625,9.98860932617187,-0.047884033203125
0.994449050943991,0.110133276367187,10.0317049560547,-0.0430956298828125
1.00060075667316,0.076614453125,9.99339772949219,0.0143652099609375
1.00675246240232,0.119710083007812,10.0173397460938,-0.01915361328125
1.01290416813149,0.105344873046875,10.036493359375,-0.009576806640625
1.01906064979382,0.09576806640625,9.9981861328125,0.01915361328125
1.02521713145614,0.110133276367187,10.0173397460938,-0.0047884033203125
1.03137361311847,0.0814028564453125,9.98382092285156,0.047884033203125
1.03753206429034,0.086191259765625,10.0221281494141,0.0383072265625
1.04369051546222,0.0909796630859375,9.98382092285156,0.009576806640625
1.04984896663409,0.1149216796875,10.0173397460938,-0.028730419921875
1.05600964599607,0.105344873046875,10.0125513427734,-0.028730419921875
1.06217032535805,0.086191259765625,9.96466730957031,-0.0143652099609375
1.06833100472003,0.09576806640625,10.0317049560547,-0.0239420166015625
1.07455178412541,0.119710083007812,10.0221281494141,0.0
1.08077256353079,0.086191259765625,9.99339772949219,-0.0239420166015625
1.08699334293618,0.105344873046875,9.96466730957031,-0.0335188232421875
1.09321669764538,0.05746083984375,10.036493359375,0.0239420166015625
1.09944005235458,0.1149216796875,10.0029745361328,0.0047884033203125
1.10566340706378,0.076614453125,9.98860932617187,-0.0143652099609375
1.1118887980143,0.09576806640625,9.9981861328125,-0.0047884033203125
1.11811418896482,0.09576806640625,9.99339772949219,-0.01915361328125
1.12433957991534,0.0814028564453125,9.97424411621094,-0.067037646484375
1.1305665011393,0.0718260498046875,9.99339772949219,0.0
1.13679342236326,0.13407529296875,9.99339772949219,-0.0047884033203125
1.14302034358721,0.124498486328125,9.98860932617187,-0.028730419921875
1.14924993126083,0.09576806640625,10.0221281494141,-0.0814028564453125
1.15547951893444,0.100556469726563,10.0077629394531,-0.0047884033203125
1.16170910660805,0.067037646484375,10.0317049560547,0.0335188232421875
1.16800791563583,0.09576806640625,10.0077629394531,-0.0143652099609375
1.1743067246636,0.067037646484375,10.0221281494141,-0.0047884033203125
1.18060553369138,0.0814028564453125,9.98382092285156,0.0
1.18690657221135,0.100556469726563,10.0077629394531,-0.028730419921875
1.19320761073131,0.105344873046875,9.99339772949219,-0.0143652099609375
1.19950864925128,0.1149216796875,10.0077629394531,0.0047884033203125
1.20581120556638,0.086191259765625,10.0269165527344,0.0047884033203125
1.21211376188149,0.0909796630859375,9.96466730957031,0.0047884033203125
1.21841631819659,0.076614453125,10.0125513427734,-0.0383072265625
1.22472100971135,0.0814028564453125,9.99339772949219,-0.009576806640625
1.2310257012261,0.100556469726563,10.0221281494141,-0.047884033203125
1.23733039274086,0.09576806640625,9.93114848632812,-0.0239420166015625
1.24363733501516,0.09576806640625,10.0077629394531,-0.01915361328125
1.24994427728947,0.0814028564453125,10.0412817626953,0.0
1.25625121956377,0.119710083007812,10.0029745361328,-0.0143652099609375
1.2626280840386,0.0909796630859375,10.0269165527344,0.0143652099609375
1.26900494851343,0.076614453125,10.0795889892578,-0.028730419921875
1.27538181298825,0.1149216796875,9.95987890625,-0.009576806640625
1.28176145220266,0.105344873046875,10.0029745361328,-0.0143652099609375
1.28814109141707,0.105344873046875,10.0317049560547,-0.0143652099609375
1.29452073063148,0.09576806640625,10.0317049560547,0.0143652099609375
1.30090217985023,0.0335188232421875,10.0029745361328,0.0383072265625
1.30728362906898,0.09576806640625,9.98860932617187,-0.047884033203125
1.31366507828773,0.105344873046875,9.97424411621094,-0.0383072265625
1.32004813764103,0.086191259765625,9.98382092285156,-0.0383072265625
1.32643119699433,0.0814028564453125,10.0317049560547,-0.047884033203125
1.33281425634763,0.076614453125,9.99339772949219,0.0
1.3391987887912,0.076614453125,9.9981861328125,0.01915361328125
1.34558332123478,0.086191259765625,9.99339772949219,0.01915361328125
1.35196785367836,0.110133276367187,9.98860932617187,-0.0526724365234375
1.35842530148652,0.0909796630859375,9.9981861328125,0.0047884033203125
1.36488274929467,0.0718260498046875,10.0077629394531,0.0
1.37134019710283,0.0718260498046875,10.0508585693359,-0.01915361328125
1.37780142290579,0.076614453125,10.0221281494141,-0.0047884033203125
1.38426264870874,0.0909796630859375,9.95987890625,0.05746083984375
1.39072387451169,0.1149216796875,9.98860932617187,0.0047884033203125
1.39718670654294,0.028730419921875,10.0460701660156,-0.009576806640625
1.40364953857419,0.09576806640625,10.0604353759766,0.0
1.41011237060544,0.0622492431640625,10.0125513427734,0.01915361328125
1.41657669981551,0.0430956298828125,10.0029745361328,-0.0335188232421875
1.42304102902558,0.1149216796875,10.0125513427734,0.01915361328125
1.42950535823565,0.100556469726563,9.9981861328125,-0.01915361328125
1.43597119666881,0.05746083984375,10.0221281494141,0.0
1.44243703510197,0.100556469726563,9.99339772949219,-0.0430956298828125
1.44890287353513,0.110133276367187,10.0077629394531,-0.0143652099609375
1.45543419406464,0.1149216796875,9.97424411621094,-0.009576806640625
1.46196551459415,0.0622492431640625,9.98382092285156,-0.0143652099609375
1.46849683512367,0.0718260498046875,9.97903251953125,-0.0383072265625
1.47504119742835,0.067037646484375,9.9981861328125,-0.0430956298828125
1.48158555973304,0.086191259765625,9.98382092285156,0.01915361328125
1.48812992203773,0.0526724365234375,9.99339772949219,0.0335188232421875
1.49467534933808,0.110133276367187,9.99339772949219,-0.047884033203125
1.50122077663842,0.0718260498046875,9.98382092285156,-0.028730419921875
1.50776620393877,0.09576806640625,10.0173397460938,-0.028730419921875
1.51431262353513,0.086191259765625,9.98860932617187,-0.0526724365234375
1.52085904313148,0.076614453125,10.0317049560547,-0.0239420166015625
1.52740546272783,0.067037646484375,10.0460701660156,0.0383072265625
1.5339530185004,0.0909796630859375,10.0077629394531,0.0047884033203125
1.54050057427297,0.0909796630859375,9.99339772949219,-0.028730419921875
1.54704813004554,0.0622492431640625,10.0125513427734,-0.0143652099609375
1.55365776893443,0.105344873046875,9.99339772949219,-0.0143652099609375
1.56026740782332,0.0909796630859375,10.0269165527344,-0.05746083984375
1.56687704671221,0.0909796630859375,10.0077629394531,-0.047884033203125
1.57348808653426,0.0909796630859375,9.9981861328125,-0.009576806640625
1.58009912635631,0.119710083007812,9.99339772949219,-0.047884033203125
1.58671016617835,0.09576806640625,9.97903251953125,0.0047884033203125
1.5933219746636,0.0430956298828125,9.98382092285156,-0.05746083984375
1.59993378314884,0.076614453125,9.96945571289062,-0.0239420166015625
1.60654559163408,0.1149216796875,9.97424411621094,-0.0047884033203125
1.61315912245005,0.086191259765625,10.0269165527344,-0.0143652099609375
1.61977265326603,0.100556469726563,10.0125513427734,0.0047884033203125
1.626386184082,0.086191259765625,10.0269165527344,-0.0047884033203125
1.63300298334415,0.0718260498046875,9.9981861328125,-0.0047884033203125
1.6396197826063,0.0383072265625,10.0077629394531,0.0239420166015625
1.64623658186846,0.086191259765625,9.9981861328125,0.0
1.65292416346568,0.0718260498046875,9.9981861328125,-0.028730419921875
1.6596117450629,0.086191259765625,10.0317049560547,-0.028730419921875
1.66629932666012,0.110133276367187,10.0029745361328,-0.0909796630859375
1.67298826405162,0.1149216796875,9.96466730957031,0.0239420166015625
1.67967720144311,0.110133276367187,10.0317049560547,0.0143652099609375
1.6863661388346,0.0814028564453125,9.98382092285156,0.01915361328125
1.69305617985023,0.0814028564453125,10.0125513427734,0.0239420166015625
1.69974622086585,0.086191259765625,10.0317049560547,-0.0335188232421875
1.70643626188148,0.0814028564453125,9.99339772949219,-0.0335188232421875
1.71312806038408,0.100556469726563,10.0029745361328,-0.0526724365234375
1.71981985888668,0.138863696289063,10.0173397460938,-0.0047884033203125
1.72651165738929,0.1149216796875,9.97424411621094,0.0047884033203125
1.73320663091359,0.086191259765625,9.98860932617187,0.047884033203125
1.7399016044379,0.110133276367187,10.0125513427734,-0.0383072265625
1.7465965779622,0.124498486328125,10.0125513427734,0.0430956298828125
1.75336231559241,0.0718260498046875,10.0460701660156,-0.0526724365234375
1.76012805322262,0.110133276367187,9.98382092285156,0.0143652099609375
1.76689379085283,0.138863696289063,10.0221281494141,0.047884033203125
1.77366081450734,0.0909796630859375,10.0173397460938,-0.01915361328125
1.78042783816186,0.129286889648437,10.036493359375,0.01915361328125
1.78719486181637,0.0814028564453125,9.9981861328125,-0.0239420166015625
1.79396298084849,0.110133276367187,9.9981861328125,0.01915361328125
1.80073109988061,0.0622492431640625,9.99339772949219,-0.009576806640625
1.80749921891272,0.05746083984375,10.0269165527344,-0.0239420166015625
1.81426915511064,0.110133276367187,9.98860932617187,-0.05746083984375
1.82103909130856,0.076614453125,10.0077629394531,0.0047884033203125
1.82780902750647,0.0622492431640625,9.97903251953125,-0.0622492431640625
1.8345820872938,0.100556469726563,9.97424411621094,-0.028730419921875
1.84135514708113,0.105344873046875,9.99339772949219,-0.009576806640625
1.84812820686845,0.0814028564453125,9.99339772949219,0.009576806640625
1.85497204812279,0.0909796630859375,10.0173397460938,-0.047884033203125
1.86181588937713,0.0814028564453125,10.0460701660156,-0.0335188232421875
1.86865973063147,0.0814028564453125,10.0221281494141,0.0047884033203125
1.87550580170352,0.124498486328125,10.0029745361328,-0.0335188232421875
1.88235187277557,0.09576806640625,9.9981861328125,0.01915361328125
1.88919794384762,0.0814028564453125,9.97903251953125,0.028730419921875
1.89604490402557,0.0718260498046875,9.98860932617187,0.0239420166015625
1.90289186420352,0.124498486328125,10.0125513427734,-0.009576806640625
1.90973882438147,0.1149216796875,10.0221281494141,-0.01915361328125
1.9165868404405,0.086191259765625,9.99339772949219,-0.0143652099609375
1.92343485649953,0.09576806640625,10.0173397460938,-0.0383072265625
1.93028287255855,0.0909796630859375,10.0077629394531,0.01915361328125
1.93713405517574,0.0909796630859375,10.0125513427734,-0.0383072265625
1.94398523779293,0.0814028564453125,9.97903251953125,-0.0622492431640625
1.95083642041012,0.09576806640625,9.98860932617187,-0.028730419921875
1.95775895936411,0.076614453125,10.0173397460938,-0.0383072265625
1.9646814983181,0.129286889648437,9.97424411621094,-0.01915361328125
1.9716040372721,0.0909796630859375,9.99339772949219,-0.009576806640625
1.97853032351342,0.0718260498046875,10.0029745361328,0.01915361328125
1.98545660975474,0.0814028564453125,10.0269165527344,-0.0526724365234375
1.99238289599605,0.086191259765625,9.98860932617187,-0.0430956298828125
1.9993119795464,0.0909796630859375,9.9981861328125,0.009576806640625
2.00624106309675,0.0622492431640625,9.94551369628906,0.009576806640625
2.0131701466471,0.0814028564453125,10.0125513427734,0.0909796630859375
2.02010020122609,0.0909796630859375,10.0221281494141,0.0526724365234375
2.02703025580508,0.0814028564453125,10.0029745361328,-0.0143652099609375
2.03396031038408,0.0335188232421875,10.0460701660156,0.01915361328125
2.04089108946394,0.076614453125,9.9981861328125,-0.01915361328125
2.0478218685438,0.0718260498046875,9.99339772949219,-0.047884033203125
2.05475264762366,0.105344873046875,9.99339772949219,0.0430956298828125
2.06175290728078,0.0718260498046875,10.0221281494141,-0.0335188232421875
2.06875316693789,0.0814028564453125,9.98860932617187,-0.0430956298828125
2.07575342659501,0.086191259765625,9.9981861328125,-0.028730419921875
2.0827550811089,0.05746083984375,9.97424411621094,-0.0143652099609375
2.08975673562279,0.0814028564453125,10.036493359375,0.0
2.09675839013668,0.110133276367187,10.0077629394531,-0.0526724365234375
2.10376081125213,0.09576806640625,10.0460701660156,-0.0526724365234375
2.11076323236758,0.0718260498046875,9.99339772949219,-0.086191259765625
2.11776565348303,0.028730419921875,9.97903251953125,-0.0526724365234375
2.12476978607852,0.0430956298828125,9.97424411621094,-0.0239420166015625
2.131773918674,0.1149216796875,9.97424411621094,0.0
2.13877805126949,0.100556469726563,9.95987890625,-0.0239420166015625
2.14578543863928,0.0909796630859375,10.0269165527344,0.0622492431640625
2.15279282600907,0.0718260498046875,10.0029745361328,0.0
2.15980021337886,0.0526724365234375,9.98382092285156,-0.009576806640625
2.16687847943789,0.05746083984375,9.9981861328125,-0.0335188232421875
2.17395674549692,0.09576806640625,10.0269165527344,-0.009576806640625
2.18103501155595,0.09576806640625,9.9981861328125,-0.0239420166015625
2.18811459922956,0.100556469726563,10.0029745361328,-0.0047884033203125
2.19519418690317,0.0909796630859375,10.0125513427734,0.01915361328125
2.20227377457678,0.09576806640625,9.98860932617187,0.05746083984375
2.20935441758893,0.124498486328125,9.97903251953125,-0.009576806640625
2.21643506060109,0.076614453125,9.9981861328125,-0.0143652099609375
2.22351570361324,0.105344873046875,10.0125513427734,-0.0143652099609375
2.23059812917747,0.105344873046875,9.97903251953125,-0.047884033203125
2.23768055474171,0.09576806640625,10.0029745361328,0.0
2.24476298030595,0.0814028564453125,9.97424411621094,0.009576806640625
2.25184849104813,0.047884033203125,10.0221281494141,0.009576806640625
2.25893400179032,0.067037646484375,9.98860932617187,-0.0430956298828125
2.26601951253251,0.0622492431640625,9.98382092285156,-0.047884033203125
2.27317590793182,0.09576806640625,9.99339772949219,0.009576806640625
2.28033230333112,0.09576806640625,9.95987890625,-0.028730419921875
2.28748869873043,0.067037646484375,10.0029745361328,-0.0335188232421875
2.29464638286671,0.100556469726563,10.0125513427734,-0.0526724365234375
2.30180406700299,0.047884033203125,10.0317049560547,-0.028730419921875
2.30896175113928,0.0909796630859375,9.96466730957031,-0.05746083984375
2.31612051285803,0.0909796630859375,10.0125513427734,-0.0383072265625
2.32327927457678,0.105344873046875,10.0029745361328,-0.0047884033203125
2.33043803629553,0.100556469726563,10.0317049560547,-0.047884033203125
2.33759856309675,0.100556469726563,10.0029745361328,0.067037646484375
2.34475908989796,0.110133276367187,10.0077629394531,0.0622492431640625
2.35191961669917,0.1149216796875,10.0029745361328,0.047884033203125
2.35908330137799,0.0814028564453125,10.0269165527344,0.028730419921875
2.36624698605681,0.067037646484375,9.98382092285156,-0.028730419921875
2.37341067073563,0.09576806640625,9.9981861328125,-0.028730419921875
2.37804313802079,0.0718260498046875,9.98382092285156,0.009576806640625
2.38267560530595,0.086191259765625,10.0077629394531,-0.0047884033203125
2.3873080725911,0.067037646484375,10.0221281494141,-0.0430956298828125
2.38933140462235,0.0718260498046875,10.0029745361328,-0.01915361328125
2.3913547366536,0.0718260498046875,9.98860932617187,-0.0143652099609375
2.39337806868485,0.067037646484375,9.95987890625,0.0143652099609375
2.3954016163194,0.086191259765625,9.98860932617187,0.0143652099609375
2.39742516395395,0.076614453125,10.0125513427734,0.0047884033203125
2.3994487115885,0.110133276367187,10.0125513427734,0.0047884033203125
2.4014057865668,0.076614453125,9.9981861328125,0.009576806640625
2.4033628615451,0.0718260498046875,9.9981861328125,-0.067037646484375
2.40531993652339,0.067037646484375,10.0029745361328,0.009576806640625
2.40727674696176,0.1149216796875,10.0029745361328,-0.0239420166015625
2.40923355740013,0.076614453125,9.98382092285156,-0.0335188232421875
2.4111903678385,0.110133276367187,10.0029745361328,-0.0143652099609375
2.41321847591141,0.0718260498046875,9.98382092285156,-0.0143652099609375
2.41524658398433,0.09576806640625,10.0269165527344,0.047884033203125
2.41727469205725,0.076614453125,9.98382092285156,-0.009576806640625
2.41930632508676,0.105344873046875,10.0173397460938,-0.01915361328125
2.42133795811628,0.119710083007812,10.0269165527344,-0.0430956298828125
2.42336959114579,0.110133276367187,10.0077629394531,0.0047884033203125
2.4254023522135,0.05746083984375,9.98860932617187,0.0047884033203125
2.42743511328121,0.0909796630859375,10.0317049560547,0.05746083984375
2.42946787434891,0.067037646484375,9.98860932617187,-0.01915361328125
2.431430766276,0.086191259765625,10.0221281494141,0.0622492431640625
2.43339365820308,0.076614453125,9.97424411621094,0.0143652099609375
2.43535655013016,0.105344873046875,9.93593688964844,-0.0047884033203125
2.43731740711801,0.100556469726563,10.0077629394531,0.0526724365234375
2.43927826410586,0.105344873046875,9.99339772949219,-0.0143652099609375
2.44123912109371,0.1149216796875,9.97424411621094,-0.0430956298828125
2.44326302517357,0.09576806640625,9.98382092285156,-0.086191259765625
2.44528692925343,0.100556469726563,10.0125513427734,-0.086191259765625
2.44731083333329,0.076614453125,10.0125513427734,-0.0047884033203125
2.44933281738277,0.100556469726563,9.98382092285156,-0.01915361328125
2.45135480143225,0.09576806640625,9.98860932617187,-0.0622492431640625
2.45337678548173,0.105344873046875,9.9981861328125,0.01915361328125
2.4553966537543,0.05746083984375,10.0125513427734,-0.0430956298828125
2.45741652202687,0.09576806640625,10.0125513427734,-0.0047884033203125
2.45943639029944,0.1149216796875,10.0317049560547,-0.0047884033203125
2.46139277354596,0.100556469726563,10.0317049560547,-0.009576806640625
2.46334915679249,0.13407529296875,10.0269165527344,-0.0622492431640625
2.46530554003902,0.0718260498046875,10.0173397460938,-0.0143652099609375
2.46726328363711,0.0909796630859375,9.9981861328125,-0.01915361328125
2.4692210272352,0.0909796630859375,9.96945571289062,0.0143652099609375
2.47117877083329,0.1149216796875,10.0077629394531,-0.067037646484375
2.47320669661454,0.067037646484375,10.0077629394531,-0.0239420166015625
2.47523462239579,0.0622492431640625,9.9981861328125,-0.0335188232421875
2.47726254817704,0.067037646484375,10.0029745361328,-0.0526724365234375
2.47929108062062,0.09576806640625,10.0029745361328,0.0143652099609375
2.48131961306419,0.1149216796875,10.0221281494141,-0.09576806640625
2.48334814550777,0.0909796630859375,9.98382092285156,0.009576806640625
2.4853746818576,0.105344873046875,9.97424411621094,-0.028730419921875
2.48740121820742,0.0814028564453125,9.97424411621094,-0.0239420166015625
2.48942775455725,0.0718260498046875,9.98382092285156,-0.05746083984375
2.4913843162977,0.067037646484375,9.99339772949219,0.0143652099609375
2.49334087803815,0.100556469726563,9.96466730957031,-0.009576806640625
2.4952974397786,0.124498486328125,9.97903251953125,-0.0526724365234375
2.49725558854162,0.0909796630859375,9.98860932617187,-0.047884033203125
2.49921373730464,0.05746083984375,9.97903251953125,-0.028730419921875
2.50117188606766,0.086191259765625,9.98382092285156,-0.0239420166015625
2.50319966753468,0.1149216796875,10.0029745361328,-0.047884033203125
2.50522744900169,0.119710083007812,10.0173397460938,0.01915361328125
2.50725523046871,0.0909796630859375,9.98382092285156,-0.028730419921875
2.50928223871523,0.1149216796875,10.0125513427734,-0.0143652099609375
2.51130924696176,0.0622492431640625,10.0077629394531,-0.0239420166015625
2.51333625520829,0.0718260498046875,9.9981861328125,0.0622492431640625
2.5153610662977,0.086191259765625,9.98382092285156,0.0383072265625
2.51738587738711,0.0814028564453125,9.97424411621094,0.0
2.51941068847652,0.09576806640625,10.0173397460938,-0.0526724365234375
2.52136746994353,0.09576806640625,9.9981861328125,-0.0047884033203125
2.52332425141055,0.105344873046875,9.97903251953125,-0.0047884033203125
2.52528103287756,0.0430956298828125,9.9981861328125,0.0143652099609375
2.52723908593746,0.110133276367187,9.96466730957031,-0.0143652099609375
2.52919713899735,0.124498486328125,9.99339772949219,0.0047884033203125
2.53115519205725,0.086191259765625,9.95030209960937,0.028730419921875
2.53318255121523,0.086191259765625,10.0221281494141,-0.05746083984375
2.53520991037322,0.047884033203125,9.99339772949219,0.0
2.53723726953121,0.0383072265625,9.96945571289062,0.0
2.53926582736541,0.09576806640625,10.0125513427734,-0.0383072265625
2.54129438519961,0.086191259765625,9.9981861328125,0.0335188232421875
2.54332294303381,0.086191259765625,10.0077629394531,0.0143652099609375
2.5453502928602,0.105344873046875,10.0077629394531,-0.0047884033203125
2.54737764268659,0.086191259765625,10.0029745361328,-0.09576806640625
2.54940499251298,0.076614453125,9.99339772949219,-0.0047884033203125
2.55135958539492,0.0909796630859375,9.98860932617187,0.0143652099609375
2.55331417827687,0.100556469726563,9.98382092285156,0.0143652099609375
2.55526877115881,0.1149216796875,9.9981861328125,-0.009576806640625
2.55722169672305,0.0526724365234375,9.99339772949219,-0.028730419921875
2.55917462228728,0.0622492431640625,9.99339772949219,-0.0718260498046875
2.56112754785152,0.105344873046875,10.0221281494141,-0.009576806640625
2.5631494554036,0.100556469726563,10.0029745361328,-0.0335188232421875
2.56517136295568,0.110133276367187,9.99339772949219,0.0
2.56719327050777,0.110133276367187,9.99339772949219,0.0143652099609375
2.56921786555985,0.086191259765625,10.0221281494141,0.0383072265625
2.57124246061194,0.05746083984375,10.0077629394531,-0.0239420166015625
2.57326705566402,0.09576806640625,10.0029745361328,0.009576806640625
2.57529307367617,0.067037646484375,9.99339772949219,-0.01915361328125
2.57731909168833,0.0718260498046875,10.0125513427734,-0.086191259765625
2.57934510970048,0.086191259765625,9.97424411621094,0.0239420166015625
2.58130619194874,0.105344873046875,10.0029745361328,0.0047884033203125
2.58326727419701,0.105344873046875,9.97903251953125,-0.0239420166015625
2.58522835644527,0.076614453125,9.96945571289062,-0.009576806640625
2.5871851693793,0.143652099609375,9.98860932617187,-0.0526724365234375
2.58914198231333,0.09576806640625,10.0125513427734,0.01915361328125
2.59109879524735,0.110133276367187,9.95509050292969,0.0
2.59311986393225,0.100556469726563,9.96466730957031,-0.028730419921875
2.59514093261714,0.119710083007812,10.0125513427734,0.0047884033203125
2.59716200130204,0.124498486328125,10.0173397460938,0.0143652099609375
2.59918293739145,0.1149216796875,10.0317049560547,0.009576806640625
2.60120387348086,0.110133276367187,9.98382092285156,0.0335188232421875
2.60322480957027,0.0909796630859375,10.0029745361328,-0.0335188232421875
2.6052454428168,0.100556469726563,10.0077629394531,0.0622492431640625
2.60726607606333,0.0526724365234375,10.0173397460938,-0.067037646484375
2.60928670930985,0.148440502929687,10.0029745361328,-0.009576806640625
2.6112433678385,0.076614453125,9.99339772949219,-0.01915361328125
2.61320002636714,0.1149216796875,9.9981861328125,-0.0239420166015625
2.61515668489579,0.076614453125,10.0125513427734,0.009576806640625
2.61711448296437,0.0143652099609375,10.0269165527344,-0.0143652099609375
2.61907228103294,0.05746083984375,9.97903251953125,-0.0143652099609375
2.62103007910152,0.110133276367187,10.0029745361328,-0.0383072265625
2.62305734613711,0.13407529296875,9.98860932617187,-0.028730419921875
2.6250846131727,0.129286889648437,10.0077629394531,0.028730419921875
2.62711188020829,0.13407529296875,10.0029745361328,-0.009576806640625
2.62913916243485,0.105344873046875,9.98860932617187,0.0143652099609375
2.63116644466141,0.0909796630859375,9.9981861328125,0.0239420166015625
2.63319372688797,0.100556469726563,9.96945571289062,0.028730419921875
2.63521998177079,0.0814028564453125,10.0221281494141,-0.0143652099609375
2.6372462366536,0.09576806640625,9.98382092285156,0.01915361328125
2.63927249153641,0.0909796630859375,10.0269165527344,-0.0335188232421875
2.64122885677079,0.105344873046875,10.0125513427734,-0.0526724365234375
2.64318522200516,0.100556469726563,10.0029745361328,-0.01915361328125
2.64514158723954,0.0909796630859375,9.99339772949219,-0.0335188232421875
2.64709775770395,0.086191259765625,9.97903251953125,-0.0526724365234375
2.64905392816835,0.09576806640625,9.96945571289062,0.028730419921875
2.65101009863276,0.100556469726563,10.0125513427734,0.047884033203125
2.65303558268224,0.076614453125,10.0077629394531,-0.0143652099609375
2.65506106673172,0.067037646484375,10.0077629394531,-0.0622492431640625
2.6570865507812,0.0909796630859375,9.99339772949219,-0.01915361328125
2.65911223817269,0.086191259765625,9.9981861328125,-0.0047884033203125
2.66113792556419,0.1149216796875,10.0125513427734,-0.0143652099609375
2.66316361295568,0.100556469726563,9.98860932617187,0.0047884033203125
2.66518944357634,0.0909796630859375,10.0269165527344,-0.0143652099609375
2.667215274197,0.1149216796875,9.97903251953125,-0.0047884033203125
2.66924110481766,0.100556469726563,10.0029745361328,-0.01915361328125
2.67119677278641,0.148440502929687,9.96945571289062,-0.01915361328125
2.67315244075516,0.13407529296875,10.0077629394531,0.0047884033203125
2.67510810872391,0.0909796630859375,10.0077629394531,0.0430956298828125
2.67706315820308,0.1149216796875,9.99339772949219,-0.0383072265625
2.67901820768224,0.0909796630859375,9.97903251953125,0.0143652099609375
2.68097325716141,0.100556469726563,9.98382092285156,0.01915361328125
2.68299658702252,0.105344873046875,9.99339772949219,-0.01915361328125
2.68501991688363,0.086191259765625,10.0077629394531,-0.0239420166015625
2.68704324674474,0.0909796630859375,10.0269165527344,-0.0622492431640625
2.68906688140186,0.100556469726563,9.9981861328125,-0.009576806640625
2.69109051605898,0.110133276367187,10.0077629394531,0.0239420166015625
2.6931141507161,0.1149216796875,10.0173397460938,0.0
2.69513732335065,0.0814028564453125,9.98382092285156,0.047884033203125
2.69716049598519,0.0814028564453125,10.0077629394531,0.01915361328125
2.69918366861974,0.076614453125,9.96945571289062,-0.0239420166015625
2.70113630555551,0.105344873046875,10.0173397460938,-0.0622492431640625
2.70308894249127,0.119710083007812,10.0317049560547,-0.009576806640625
2.70504157942703,0.076614453125,10.0125513427734,0.0143652099609375
2.70699277593311,0.124498486328125,10.0125513427734,0.01915361328125
2.70894397243919,0.105344873046875,9.96466730957031,-0.028730419921875
2.71089516894526,0.086191259765625,9.98860932617187,-0.0239420166015625
2.71291597189665,0.105344873046875,9.9981861328125,-0.0143652099609375
2.71493677484804,0.119710083007812,9.96945571289062,0.0526724365234375
2.71695757779943,0.086191259765625,9.98860932617187,-0.0335188232421875
2.71897835980898,0.0718260498046875,10.036493359375,-0.01915361328125
2.72099914181853,0.105344873046875,9.98382092285156,-0.009576806640625
2.72301992382808,0.100556469726563,10.0125513427734,-0.0143652099609375
2.72504199555117,0.0909796630859375,9.97424411621094,-0.0430956298828125
2.72706406727426,0.0622492431640625,9.9981861328125,0.0047884033203125
2.72908613899735,0.119710083007812,10.0317049560547,-0.009576806640625
2.73104348263884,0.0718260498046875,10.0077629394531,-0.0335188232421875
2.73300082628033,0.09576806640625,9.97903251953125,-0.0526724365234375
2.73495816992183,0.01915361328125,10.0221281494141,-0.0335188232421875
2.73690903634978,0.0814028564453125,10.0125513427734,-0.0430956298828125
2.73885990277773,0.119710083007812,9.98860932617187,0.009576806640625
2.74081076920568,0.129286889648437,9.98860932617187,-0.01915361328125
2.74282606130638,0.119710083007812,9.98382092285156,0.0047884033203125
2.74484135340707,0.100556469726563,10.0077629394531,0.0047884033203125
2.74685664550776,0.09576806640625,10.0269165527344,-0.0047884033203125
2.74887123404943,0.09576806640625,9.95030209960937,-0.0718260498046875
2.7508858225911,0.05746083984375,10.0029745361328,-0.009576806640625
2.75290041113276,0.100556469726563,10.0412817626953,-0.0239420166015625
2.75491401226124,0.086191259765625,10.0125513427734,0.009576806640625
2.75692761338971,0.086191259765625,9.97424411621094,-0.0239420166015625
2.75894121451818,0.0814028564453125,9.97903251953125,-0.0718260498046875
2.7608967147352,0.09576806640625,9.9981861328125,-0.0047884033203125
2.76285221495221,0.09576806640625,10.0077629394531,-0.0047884033203125
2.76480771516922,0.0909796630859375,9.99339772949219,-0.0335188232421875
2.76676360763884,0.0718260498046875,9.96466730957031,0.0143652099609375
2.76871950010846,0.086191259765625,9.9981861328125,0.01915361328125
2.77067539257808,0.076614453125,10.0173397460938,0.0335188232421875
2.77269962619353,0.100556469726563,10.0077629394531,0.0430956298828125
2.77472385980898,0.0718260498046875,9.98382092285156,-0.0335188232421875
2.77674809342443,0.0814028564453125,10.0077629394531,0.009576806640625
2.7787720928819,0.0814028564453125,9.98382092285156,0.01915361328125
2.78079609233936,0.076614453125,10.0221281494141,-0.01915361328125
2.78282009179683,0.0909796630859375,10.0173397460938,-0.028730419921875
2.78484296017791,0.100556469726563,10.0029745361328,-0.0335188232421875
2.78686582855898,0.0909796630859375,9.99339772949219,0.0383072265625
2.78888869694006,0.110133276367187,9.96466730957031,-0.028730419921875
2.79084417469613,0.0909796630859375,9.97424411621094,0.009576806640625
2.79279965245221,0.13407529296875,9.99339772949219,-0.0335188232421875
2.79475513020829,0.09576806640625,9.9981861328125,0.0430956298828125
2.79671155674908,0.076614453125,10.0173397460938,-0.0526724365234375
2.79866798328988,0.124498486328125,10.0460701660156,-0.0430956298828125
2.80062440983068,0.1149216796875,10.036493359375,0.0718260498046875
2.80265002647565,0.0718260498046875,9.95987890625,-0.0239420166015625
2.80467564312061,0.119710083007812,10.0125513427734,0.0047884033203125
2.80670125976558,0.124498486328125,9.95987890625,0.01915361328125
2.80872602951384,0.0814028564453125,9.95509050292969,-0.028730419921875
2.8107507992621,0.086191259765625,10.0221281494141,-0.0047884033203125
2.81277556901037,0.086191259765625,9.95987890625,-0.05746083984375
2.81479917773433,0.13407529296875,10.0173397460938,-0.0526724365234375
2.81682278645828,0.09576806640625,10.0077629394531,0.047884033203125
2.81884639518224,0.0909796630859375,10.0029745361328,-0.009576806640625
2.82080190874561,0.0909796630859375,10.0077629394531,0.0047884033203125
2.82275742230898,0.100556469726563,9.96945571289062,0.0
2.82471293587235,0.105344873046875,10.0269165527344,-0.01915361328125
2.82666886111106,0.0909796630859375,10.0412817626953,-0.028730419921875
2.82862478634978,0.0718260498046875,9.9981861328125,0.0718260498046875
2.83058071158849,0.076614453125,9.98860932617187,0.028730419921875
2.83260569802513,0.0718260498046875,10.0125513427734,-0.01915361328125
2.83463068446176,0.100556469726563,10.0077629394531,-0.0047884033203125
2.83665567089839,0.138863696289063,10.0077629394531,0.0143652099609375
2.83868205620655,0.0718260498046875,10.0221281494141,-0.0239420166015625
2.84070844151471,0.076614453125,10.0412817626953,0.01915361328125
2.84273482682287,0.0814028564453125,10.0173397460938,0.01915361328125
2.84476073014318,0.0909796630859375,10.0269165527344,0.009576806640625
2.84678663346349,0.076614453125,10.0077629394531,0.0047884033203125
2.84881253678381,0.100556469726563,9.98860932617187,-0.0143652099609375
2.85076626150169,0.105344873046875,10.0029745361328,-0.0526724365234375
2.85271998621957,0.076614453125,9.96945571289062,0.0335188232421875
2.85467371093745,0.13407529296875,10.0221281494141,-0.0383072265625
2.85662580002165,0.0718260498046875,9.99339772949219,-0.0047884033203125
2.85857788910585,0.076614453125,9.98860932617187,0.0047884033203125
2.86052997819005,0.100556469726563,10.0173397460938,0.0143652099609375
2.8625535507812,0.0718260498046875,9.98382092285156,0.01915361328125
2.86457712337235,0.086191259765625,9.98382092285156,0.028730419921875
2.86660069596349,0.0909796630859375,9.9981861328125,-0.028730419921875
2.86862717328554,0.09576806640625,10.0029745361328,-0.0239420166015625
2.87065365060759,0.100556469726563,9.99339772949219,0.0047884033203125
2.87268012792964,0.0718260498046875,9.99339772949219,0.0239420166015625
2.87470964225255,0.0718260498046875,10.036493359375,-0.0143652099609375
2.87673915657547,0.138863696289063,9.9981861328125,0.047884033203125
2.87876867089839,0.086191259765625,10.0221281494141,-0.0239420166015625
2.88073485492616,0.067037646484375,10.0460701660156,0.0047884033203125
2.88270103895394,0.0718260498046875,10.0125513427734,-0.009576806640625
2.88466722298172,0.0814028564453125,9.9981861328125,-0.009576806640625
2.88662147005203,0.0909796630859375,10.0173397460938,-0.05746083984375
2.88857571712234,0.100556469726563,10.0077629394531,-0.01915361328125
2.89052996419266,0.05746083984375,9.95987890625,-0.028730419921875
2.89254695562061,0.0622492431640625,10.0029745361328,0.0
2.89456394704856,0.1149216796875,10.0077629394531,0.0143652099609375
2.89658093847651,0.0718260498046875,9.99339772949219,0.009576806640625
2.89859826562495,0.086191259765625,10.0173397460938,-0.067037646484375
2.90061559277339,0.105344873046875,9.97903251953125,0.0909796630859375
2.90263291992182,0.076614453125,9.95509050292969,-0.0143652099609375
2.90465052712668,0.086191259765625,9.97903251953125,-0.0430956298828125
2.90666813433154,0.0718260498046875,9.9981861328125,0.01915361328125
2.90868574153641,0.124498486328125,10.036493359375,0.0
2.91064282454422,0.0622492431640625,9.99339772949219,0.0
2.91259990755203,0.0909796630859375,10.0125513427734,0.047884033203125
2.91455699055984,0.086191259765625,9.98860932617187,0.0335188232421875
2.91651578493918,0.1149216796875,10.0173397460938,0.009576806640625
2.91847457931852,0.09576806640625,10.0221281494141,-0.0383072265625
2.92043337369786,0.067037646484375,9.9981861328125,-0.01915361328125
2.92246227680116,0.0909796630859375,10.036493359375,-0.009576806640625
2.92449117990446,0.09576806640625,10.0029745361328,0.009576806640625
2.92652008300776,0.0622492431640625,9.98860932617187,0.0143652099609375
2.92854863530811,0.0909796630859375,10.0077629394531,0.076614453125
2.93057718760845,0.119710083007812,9.99339772949219,-0.01915361328125
2.9326057399088,0.076614453125,9.98382092285156,-0.028730419921875
2.93463213400602,0.0814028564453125,10.0077629394531,-0.0718260498046875
2.93665852810325,0.076614453125,10.0221281494141,-0.0335188232421875
2.93868492220047,0.086191259765625,10.0029745361328,-0.0047884033203125
2.94064231477859,0.0335188232421875,9.9981861328125,-0.0143652099609375
2.94259970735672,0.0814028564453125,10.0029745361328,-0.0383072265625
2.94455709993484,0.086191259765625,10.0173397460938,0.009576806640625
2.94651622287321,0.086191259765625,10.0029745361328,-0.0335188232421875
2.94847534581158,0.086191259765625,9.98860932617187,0.0430956298828125
2.95043446874995,0.0909796630859375,10.0029745361328,-0.009576806640625
2.95246320692269,0.0718260498046875,9.9981861328125,-0.0143652099609375
2.95449194509543,0.105344873046875,10.0029745361328,-0.009576806640625
2.95652068326818,0.1149216796875,9.9981861328125,-0.009576806640625
2.95854889236106,0.0909796630859375,9.97424411621094,-0.0526724365234375
2.96057710145394,0.09576806640625,9.9981861328125,0.0047884033203125
2.96260531054682,0.09576806640625,9.95987890625,0.01915361328125
2.9646314789496,0.086191259765625,9.96945571289062,0.0143652099609375
2.96665764735238,0.0814028564453125,10.0029745361328,0.0430956298828125
2.96868381575515,0.119710083007812,9.99339772949219,-0.0526724365234375
2.97064115169265,0.100556469726563,9.97903251953125,0.028730419921875
2.97259848763015,0.129286889648437,9.97424411621094,0.0
2.97455582356765,0.0718260498046875,9.95987890625,0.110133276367187
2.9765137023654,0.105344873046875,10.0173397460938,-0.01915361328125
2.97847158116314,0.0909796630859375,10.0125513427734,0.0383072265625
2.98042945996088,0.124498486328125,9.99339772949219,0.009576806640625
2.98238911892356,0.0526724365234375,9.97903251953125,-0.0047884033203125
2.98434877788623,0.0718260498046875,9.97903251953125,0.0383072265625
2.9863084368489,0.105344873046875,10.0077629394531,-0.0239420166015625
2.98833520930984,0.0622492431640625,9.96945571289062,-0.0526724365234375
2.99036198177078,0.0814028564453125,10.0269165527344,0.009576806640625
2.99238875423172,0.076614453125,10.0269165527344,-0.0047884033203125
2.99441444921869,0.0622492431640625,10.0221281494141,-0.0526724365234375
2.99644014420567,0.086191259765625,10.0125513427734,0.0047884033203125
2.99846583919265,0.100556469726563,10.0221281494141,-0.01915361328125
3.00042222569439,0.0909796630859375,9.95987890625,-0.0047884033203125
3.00237861219612,0.09576806640625,9.99339772949219,0.0239420166015625
3.00433499869786,0.119710083007812,10.0077629394531,0.009576806640625
3.00628996571175,0.110133276367187,10.0221281494141,0.0047884033203125
3.00824493272564,0.067037646484375,9.97903251953125,-0.01915361328125
3.01019989973953,0.1149216796875,9.97903251953125,-0.0622492431640625
3.01215726692703,0.0814028564453125,10.0125513427734,0.0526724365234375
3.01411463411453,0.076614453125,9.99339772949219,-0.028730419921875
3.01607200130203,0.110133276367187,10.0317049560547,-0.01915361328125
3.01810107693137,0.0909796630859375,10.0173397460938,0.05746083984375
3.02013015256071,0.0718260498046875,9.97424411621094,-0.009576806640625
3.02215922819005,0.124498486328125,10.0029745361328,0.0047884033203125
3.02418895822477,0.105344873046875,9.99339772949219,0.0143652099609375
3.02621868825949,0.09576806640625,10.0125513427734,-0.0239420166015625
3.02824841829421,0.105344873046875,10.0317049560547,0.0047884033203125
3.03020999121088,0.09576806640625,10.0029745361328,-0.0239420166015625
3.03217156412755,0.05746083984375,10.0029745361328,0.0335188232421875
3.03413313704421,0.0814028564453125,9.98382092285156,0.009576806640625
3.03609247287321,0.0814028564453125,10.0317049560547,0.028730419921875
3.0380518087022,0.086191259765625,10.0221281494141,-0.0239420166015625
3.04001114453119,0.076614453125,9.98860932617187,-0.028730419921875
3.0420357274305,0.105344873046875,10.0029745361328,-0.0143652099609375
3.0440603103298,0.086191259765625,9.98382092285156,0.0143652099609375
3.04608489322911,0.0718260498046875,10.0077629394531,-0.0383072265625
3.04810977994786,0.0718260498046875,9.98382092285156,-0.0239420166015625
3.05013466666661,0.0718260498046875,9.98860932617187,0.0335188232421875
3.05215955338536,0.086191259765625,9.98382092285156,0.009576806640625
3.05418447211366,0.09576806640625,10.0221281494141,0.0143652099609375
3.05620939084196,0.105344873046875,10.0029745361328,-0.01915361328125
3.05823430957025,0.100556469726563,9.98860932617187,0.0430956298828125
3.06019173546001,0.0814028564453125,9.98860932617187,0.0143652099609375
3.06214916134977,0.100556469726563,10.0125513427734,0.028730419921875
3.06410658723953,0.047884033203125,9.98382092285156,-0.0622492431640625
3.06606441113275,0.0814028564453125,10.036493359375,-0.0143652099609375
3.06802223502598,0.0814028564453125,9.94551369628906,-0.01915361328125
3.06998005891921,0.110133276367187,9.98382092285156,-0.01915361328125
3.0719395992838,0.119710083007812,9.9981861328125,-0.0143652099609375
3.07389913964838,0.076614453125,10.0412817626953,0.05746083984375
3.07585868001296,0.05746083984375,9.99339772949219,-0.0239420166015625
3.0778871853298,0.09576806640625,9.97903251953125,-0.01915361328125
3.07991569064664,0.0909796630859375,10.0125513427734,-0.0143652099609375
3.08194419596348,0.100556469726563,9.96466730957031,-0.047884033203125
3.08397072558588,0.086191259765625,10.0125513427734,0.009576806640625
3.08599725520828,0.086191259765625,10.0029745361328,-0.01915361328125
3.08802378483067,0.13407529296875,10.0412817626953,0.0526724365234375
3.08998070464404,0.09576806640625,9.9981861328125,-0.01915361328125
3.09193762445741,0.1149216796875,9.99339772949219,-0.0383072265625
3.09389454427077,0.119710083007812,10.036493359375,-0.0335188232421875
3.09585206228293,0.076614453125,10.0077629394531,-0.0047884033203125
3.09780958029508,0.09576806640625,10.0125513427734,0.0143652099609375
3.09976709830723,0.1149216796875,10.0029745361328,-0.0335188232421875
3.10172710818137,0.067037646484375,9.9981861328125,0.028730419921875
3.1036871180555,0.0814028564453125,9.98860932617187,-0.0335188232421875
3.10564712792963,0.09576806640625,9.98382092285156,-0.0239420166015625
3.10767422829855,0.119710083007812,10.0077629394531,0.0335188232421875
3.10970132866748,0.105344873046875,10.0460701660156,0.0
3.1117284290364,0.100556469726563,10.0173397460938,-0.0335188232421875
3.11375372862407,0.0622492431640625,9.9981861328125,0.0
3.11577902821175,0.0383072265625,10.0125513427734,0.0143652099609375
3.11780432779942,0.100556469726563,10.0269165527344,0.0
3.11975980967876,0.110133276367187,9.98860932617187,0.0
3.1217152915581,0.13407529296875,10.0173397460938,-0.0047884033203125
3.12367077343744,0.076614453125,9.95987890625,0.0047884033203125
3.12562677929682,0.09576806640625,9.98382092285156,-0.0383072265625
3.12758278515619,0.100556469726563,9.9981861328125,0.009576806640625
3.12953879101557,0.0814028564453125,10.0173397460938,-0.009576806640625
3.13149685536019,0.105344873046875,10.0125513427734,-0.028730419921875
3.1334549197048,0.0909796630859375,9.99339772949219,-0.0383072265625
3.13541298404942,0.0718260498046875,9.98860932617187,0.009576806640625
3.13751819010411,0.0622492431640625,9.9981861328125,0.0143652099609375
3.1396233961588,0.100556469726563,9.98382092285156,0.0047884033203125
3.14172860221348,0.119710083007812,9.98860932617187,0.0
3.1438343070746,0.0718260498046875,10.0077629394531,0.0047884033203125
3.14594001193571,0.138863696289063,9.98860932617187,0.0430956298828125
3.14804571679682,0.105344873046875,10.0317049560547,0.0143652099609375
3.1500838008897,0.100556469726563,9.95987890625,-0.0143652099609375
3.15212188498258,0.1149216796875,9.98860932617187,-0.0047884033203125
3.15415996907546,0.0909796630859375,10.0173397460938,0.0047884033203125
3.15619718565532,0.119710083007812,9.97903251953125,0.0
3.15823440223519,0.110133276367187,10.0269165527344,-0.0239420166015625
3.16027161881505,0.105344873046875,9.95030209960937,-0.0383072265625
3.16230849327251,0.100556469726563,9.97903251953125,0.0047884033203125
3.16434536772998,0.100556469726563,9.99339772949219,0.0718260498046875
3.16638224218744,0.100556469726563,10.0077629394531,0.0047884033203125
3.16841870822477,0.105344873046875,9.96945571289062,-0.0239420166015625
3.17045517426209,0.110133276367187,9.97424411621094,0.05746083984375
3.17249164029942,0.09576806640625,10.0029745361328,0.0383072265625
3.17858113715272,0.09576806640625,9.97424411621094,-0.0047884033203125
3.18467063400602,0.119710083007812,10.0173397460938,-0.0143652099609375
3.19076013085932,0.0718260498046875,10.0173397460938,-0.0143652099609375
3.19278428016487,0.067037646484375,10.0556469726563,-0.0239420166015625
3.19480842947043,0.086191259765625,10.0173397460938,-0.0622492431640625
3.19683257877599,0.076614453125,10.0125513427734,-0.067037646484375
3.19885597808154,0.0430956298828125,9.97903251953125,-0.067037646484375
3.2008793773871,0.0814028564453125,10.0077629394531,-0.0335188232421875
3.20290277669265,0.105344873046875,9.99339772949219,-0.01915361328125
3.2049261961805,0.1149216796875,10.0029745361328,-0.009576806640625
3.20694961566835,0.105344873046875,9.9981861328125,0.047884033203125
3.20897303515619,0.076614453125,10.0221281494141,-0.0143652099609375
3.21093286588536,0.067037646484375,10.0269165527344,-0.0335188232421875
3.21289269661453,0.047884033203125,10.0029745361328,0.0143652099609375
3.21485252734369,0.105344873046875,9.9981861328125,0.0143652099609375
3.2168814305555,0.076614453125,9.95987890625,-0.0335188232421875
3.21891033376731,0.086191259765625,9.98382092285156,-0.0430956298828125
3.22093923697911,0.076614453125,9.99339772949219,0.0143652099609375
3.22296839181852,0.076614453125,9.97903251953125,0.0047884033203125
3.22499754665793,0.0909796630859375,10.0221281494141,-0.0047884033203125
3.22702670149734,0.0909796630859375,10.036493359375,-0.0143652099609375
3.22905592849387,0.0718260498046875,9.99339772949219,0.0
3.2310851554904,0.100556469726563,10.0029745361328,-0.0047884033203125
3.23311438248692,0.110133276367187,10.0221281494141,0.0335188232421875
3.23514264800342,0.09576806640625,9.99339772949219,-0.0526724365234375
3.23717091351991,0.110133276367187,10.0029745361328,0.01915361328125
3.2391991790364,0.0335188232421875,9.9981861328125,0.0143652099609375
3.24115936914057,0.05746083984375,9.97903251953125,-0.0239420166015625
3.24311955924474,0.119710083007812,10.0317049560547,-0.047884033203125
3.2450797493489,0.110133276367187,9.99339772949219,-0.0526724365234375
3.24710942371956,0.0909796630859375,10.0125513427734,-0.009576806640625
3.24913909809022,0.086191259765625,10.0029745361328,-0.0143652099609375
3.25116877246088,0.100556469726563,9.9981861328125,0.009576806640625
3.25319916764317,0.105344873046875,9.97424411621094,-0.028730419921875
3.25522956282546,0.110133276367187,9.9981861328125,0.009576806640625
3.25725995800776,0.067037646484375,9.97903251953125,0.076614453125
3.25928958246522,0.0909796630859375,10.0125513427734,-0.0239420166015625
3.26131920692269,0.0909796630859375,9.98382092285156,0.009576806640625
3.26334883138015,0.105344873046875,9.94551369628906,-0.009576806640625
3.26537701692703,0.086191259765625,10.0077629394531,-0.0383072265625
3.2674052024739,0.110133276367187,9.9981861328125,-0.0239420166015625
3.26943338802078,0.100556469726563,9.97424411621094,-0.0143652099609375
3.27139380837668,0.086191259765625,9.9981861328125,-0.0526724365234375
3.27335422873258,0.0909796630859375,9.98382092285156,0.009576806640625
3.27531464908848,0.076614453125,10.0173397460938,-0.0622492431640625
3.27734539192703,0.0718260498046875,10.0125513427734,0.028730419921875
3.27937613476557,0.110133276367187,9.98860932617187,-0.009576806640625
3.28140687760411,0.105344873046875,9.98382092285156,0.0430956298828125
3.28343892046435,0.067037646484375,9.99339772949219,0.01915361328125
3.2854709633246,0.086191259765625,9.9981861328125,-0.0430956298828125
3.28750300618484,0.0909796630859375,10.0029745361328,-0.047884033203125
3.28953460069439,0.076614453125,10.036493359375,-0.0430956298828125
3.29156619520394,0.086191259765625,9.99339772949219,-0.0526724365234375
3.29359778971349,0.0814028564453125,9.96945571289062,0.0430956298828125
3.29562704665793,0.05746083984375,9.98860932617187,-0.028730419921875
3.29765630360238,0.05746083984375,9.9981861328125,-0.028730419921875
3.29968556054682,0.124498486328125,9.97903251953125,0.009576806640625
3.3016453774956,0.129286889648437,9.98382092285156,0.0239420166015625
3.30360519444439,0.119710083007812,10.0221281494141,-0.0239420166015625
3.30556501139317,0.119710083007812,10.0173397460938,-0.0383072265625
3.30759584212234,0.1149216796875,9.99339772949219,-0.0143652099609375
3.30962667285151,0.0909796630859375,10.0460701660156,-0.047884033203125
3.31165750358067,0.105344873046875,9.98382092285156,0.0
3.31369110970047,0.09576806640625,10.0269165527344,-0.0430956298828125
3.31572471582026,0.086191259765625,9.98382092285156,0.0239420166015625
3.31775832194005,0.110133276367187,10.0077629394531,-0.0047884033203125
3.31979506998692,0.0718260498046875,9.96945571289062,-0.0047884033203125
3.3218318180338,0.124498486328125,10.0269165527344,-0.0622492431640625
3.32386856608067,0.129286889648437,10.1131078125,0.0
3.32590321853293,0.1149216796875,9.84016882324219,-0.047884033203125
3.32793787098519,0.0718260498046875,9.98382092285156,-0.009576806640625
3.32997252343745,0.086191259765625,10.0077629394531,0.0
3.3319365055338,0.067037646484375,10.0891657958984,-0.0335188232421875
3.33390048763015,0.119710083007812,9.95987890625,0.047884033203125
3.33586446972651,0.076614453125,10.0939541992188,-0.0526724365234375
3.3378897414279,0.158017309570312,9.98860932617187,-0.01915361328125
3.33991501312929,0.0526724365234375,10.0029745361328,0.0047884033203125
3.34194028483067,0.076614453125,10.0221281494141,0.0047884033203125
3.34396431434456,0.105344873046875,10.0269165527344,-0.0430956298828125
3.34598834385845,0.119710083007812,9.94072529296875,-0.01915361328125
3.34801237337234,0.100556469726563,10.0317049560547,-0.028730419921875
3.35003562358935,0.129286889648437,9.98860932617187,0.0335188232421875
3.35205887380637,0.076614453125,10.036493359375,-0.067037646484375
3.35408212402338,0.086191259765625,9.96945571289062,-0.009576806640625
3.35610573404942,0.0718260498046875,9.96466730957031,-0.028730419921875
3.35812934407546,0.076614453125,9.9981861328125,-0.05746083984375
3.36015295410151,0.05746083984375,9.98860932617187,-0.0047884033203125
3.36211298871522,0.0718260498046875,9.96945571289062,0.0383072265625
3.36407302332894,0.09576806640625,10.0077629394531,0.0047884033203125
3.36603305794265,0.119710083007812,10.0221281494141,0.01915361328125
3.36806279969613,0.1149216796875,9.95987890625,-0.0335188232421875
3.3700925414496,0.100556469726563,9.9981861328125,0.0143652099609375
3.37212228320307,0.067037646484375,10.0029745361328,0.009576806640625
3.37415264290359,0.110133276367187,9.96945571289062,-0.0047884033203125
3.37618300260411,0.100556469726563,9.97903251953125,-0.0143652099609375
3.37821336230463,0.0526724365234375,10.0317049560547,-0.0239420166015625
3.38024287402338,0.0622492431640625,10.0029745361328,-0.0383072265625
3.38227238574213,0.047884033203125,10.036493359375,0.0
3.38430189746088,0.09576806640625,9.95030209960937,-0.0335188232421875
3.3863299009331,0.09576806640625,10.0077629394531,-0.01915361328125
3.38835790440533,0.0814028564453125,9.99339772949219,0.028730419921875
3.39038590787755,0.086191259765625,9.98860932617187,0.0143652099609375
3.39234637847217,0.076614453125,10.0173397460938,-0.0383072265625
3.39430684906679,0.1149216796875,9.98382092285156,0.028730419921875
3.3962673196614,0.129286889648437,9.98382092285156,-0.0239420166015625
3.398297219618,0.100556469726563,9.96945571289062,0.0143652099609375
3.4003271195746,0.0622492431640625,9.9981861328125,0.0383072265625
3.4023570195312,0.086191259765625,9.98860932617187,-0.0335188232421875
3.40438729123259,0.0622492431640625,9.98382092285156,-0.009576806640625
3.40641756293397,0.100556469726563,10.0077629394531,-0.0335188232421875
3.40844783463536,0.0909796630859375,9.96945571289062,0.01915361328125
3.41047741872824,0.0718260498046875,9.9981861328125,0.009576806640625
3.41250700282113,0.0622492431640625,10.0173397460938,-0.009576806640625
3.41453658691401,0.105344873046875,9.97903251953125,-0.0335188232421875
3.41656467198345,0.110133276367187,9.99339772949219,0.0047884033203125
3.4185927570529,0.09576806640625,9.98382092285156,0.0622492431640625
3.42062084212234,0.100556469726563,9.9981861328125,-0.01915361328125
3.42258148546002,0.09576806640625,10.0029745361328,-0.0143652099609375
3.42454212879769,0.0718260498046875,10.0125513427734,0.0622492431640625
3.42650277213536,0.1149216796875,10.0125513427734,0.0335188232421875
3.42853293229161,0.1149216796875,9.96945571289062,-0.028730419921875
3.43056309244786,0.119710083007812,10.0221281494141,0.0335188232421875
3.43259325260411,0.100556469726563,10.0077629394531,0.05746083984375
3.43462383604595,0.086191259765625,9.95030209960937,0.0143652099609375
3.43665441948779,0.105344873046875,10.0125513427734,0.009576806640625
3.43868500292963,0.105344873046875,10.0029745361328,0.0
3.44071548253033,0.0814028564453125,9.95987890625,-0.0383072265625
3.44274596213102,0.105344873046875,10.0077629394531,0.0239420166015625
3.44477644173172,0.148440502929687,9.9981861328125,-0.0239420166015625
3.44680459483502,0.100556469726563,9.97424411621094,0.0143652099609375
3.44883274793831,0.105344873046875,9.97903251953125,0.028730419921875
3.45086090104161,0.076614453125,10.0029745361328,-0.009576806640625
3.45282089691835,0.0909796630859375,10.0604353759766,-0.086191259765625
3.45478089279509,0.09576806640625,10.0269165527344,0.0
3.45674088867182,0.119710083007812,10.0412817626953,-0.01915361328125
3.45877275759543,0.0430956298828125,10.0077629394531,-0.05746083984375
3.46080462651905,0.105344873046875,9.99339772949219,-0.0383072265625
3.46283649544266,0.1149216796875,9.97424411621094,-0.047884033203125
3.46487130023866,0.086191259765625,10.0125513427734,-0.009576806640625
3.46690610503467,0.1149216796875,9.93593688964844,0.01915361328125
3.46894090983068,0.086191259765625,9.95509050292969,0.0239420166015625
3.47097769542096,0.0718260498046875,9.99339772949219,-0.01915361328125
3.47301448101123,0.0909796630859375,9.9981861328125,-0.0383072265625
3.47505126660151,0.0718260498046875,10.0269165527344,-0.047884033203125
3.47708726898866,0.0718260498046875,9.9981861328125,-0.0239420166015625
3.47912327137582,0.100556469726563,9.97424411621094,0.0047884033203125
3.48115927376297,0.110133276367187,9.99339772949219,-0.01915361328125
3.48312572656245,0.076614453125,10.0029745361328,0.0
3.48509217936193,0.119710083007812,10.0077629394531,-0.0430956298828125
3.48705863216141,0.076614453125,9.98860932617187,-0.0143652099609375
3.48908630088971,0.047884033203125,10.0125513427734,0.0143652099609375
3.491113969618,0.086191259765625,10.0029745361328,-0.01915361328125
3.4931416383463,0.0814028564453125,10.0077629394531,-0.047884033203125
3.49516772634543,0.124498486328125,10.0029745361328,-0.0239420166015625
3.49719381434457,0.100556469726563,9.98382092285156,-0.047884033203125
3.4992199023437,0.105344873046875,10.0221281494141,0.0335188232421875
3.50124570941835,0.0909796630859375,10.0125513427734,-0.009576806640625
3.50327151649301,0.119710083007812,9.99339772949219,-0.0239420166015625
3.50529732356766,0.0718260498046875,10.0029745361328,-0.0335188232421875
3.50732390288624,0.086191259765625,10.0077629394531,-0.047884033203125
3.50935048220481,0.09576806640625,9.9981861328125,-0.0143652099609375
3.51137706152339,0.129286889648437,10.0269165527344,-0.0430956298828125
3.51333812282981,0.09576806640625,10.0077629394531,0.0047884033203125
3.51529918413624,0.100556469726563,10.0317049560547,0.0430956298828125
3.51726024544266,0.110133276367187,9.99339772949219,-0.047884033203125
3.51929052376297,0.067037646484375,10.0508585693359,-0.0047884033203125
3.52132080208329,0.100556469726563,9.9981861328125,0.0239420166015625
3.5233510804036,0.0909796630859375,10.0173397460938,0.0047884033203125
3.52538147026905,0.0718260498046875,10.0412817626953,0.01915361328125
3.5274118601345,0.0718260498046875,10.0221281494141,-0.0239420166015625
3.52944224999995,0.05746083984375,10.0317049560547,-0.009576806640625
3.53147171831592,0.100556469726563,9.9981861328125,0.0526724365234375
3.5335011866319,0.076614453125,10.0029745361328,0.0383072265625
3.53553065494787,0.076614453125,10.0125513427734,-0.0526724365234375
3.53755913302947,0.0814028564453125,9.91199487304687,0.028730419921875
3.53958761111106,0.138863696289063,10.0221281494141,0.0622492431640625
3.54161608919266,0.0622492431640625,9.98382092285156,-0.0430956298828125
3.54357694498693,0.086191259765625,9.9981861328125,-0.01915361328125
3.5455378007812,0.0622492431640625,9.95509050292969,-0.009576806640625
3.54749865657547,0.138863696289063,9.97424411621094,0.028730419921875
3.54952918858502,0.0909796630859375,9.9981861328125,0.076614453125
3.55155972059457,0.086191259765625,9.96466730957031,0.0143652099609375
3.55359025260412,0.067037646484375,9.98382092285156,0.0239420166015625
3.55562061566836,0.110133276367187,9.98860932617187,-0.076614453125
3.55765097873259,0.119710083007812,10.0077629394531,-0.028730419921875
3.55968134179683,0.086191259765625,9.98860932617187,-0.0143652099609375
3.56171095811627,0.067037646484375,9.98382092285156,0.009576806640625
3.56374057443572,0.100556469726563,10.0604353759766,0.047884033203125
3.56577019075516,0.0909796630859375,10.0077629394531,0.028730419921875
3.56779861664492,0.0909796630859375,10.0269165527344,0.028730419921875
3.56982704253468,0.0526724365234375,10.0029745361328,0.047884033203125
3.57185546842443,0.100556469726563,10.0029745361328,0.0383072265625
3.5738159584418,0.0909796630859375,10.0221281494141,-0.0143652099609375
3.57577644845916,0.047884033203125,10.0221281494141,-0.0239420166015625
3.57773693847652,0.0718260498046875,10.0412817626953,-0.0383072265625
3.57976759830725,0.105344873046875,9.99339772949219,-0.0335188232421875
3.58179825813798,0.0718260498046875,10.0173397460938,0.0143652099609375
3.58382891796871,0.076614453125,9.97903251953125,-0.0383072265625
3.5858613038194,0.086191259765625,10.0029745361328,-0.0430956298828125
3.5878936896701,0.086191259765625,9.98860932617187,-0.0622492431640625
3.58992607552079,0.0622492431640625,9.9981861328125,-0.0526724365234375
3.5919577694227,0.086191259765625,10.0029745361328,-0.0430956298828125
3.59398946332461,0.076614453125,9.9981861328125,-0.0430956298828125
3.59602115722652,0.076614453125,10.0317049560547,0.0
3.5980506663411,0.086191259765625,9.99339772949219,0.0143652099609375
3.60008017545568,0.100556469726563,10.036493359375,0.0
3.60210968457027,0.105344873046875,10.0077629394531,0.047884033203125
3.60407018153207,0.05746083984375,9.99339772949219,-0.0143652099609375
3.60603067849388,0.100556469726563,10.0077629394531,-0.0143652099609375
3.60799117545569,0.0335188232421875,10.0221281494141,-0.0143652099609375
3.61002098676211,0.0430956298828125,9.9981861328125,0.047884033203125
3.61205079806853,0.09576806640625,10.0269165527344,-0.0718260498046875
3.61408060937496,0.100556469726563,10.0077629394531,-0.0383072265625
3.6161146319444,0.110133276367187,9.98382092285156,0.0383072265625
3.61814865451385,0.047884033203125,9.97424411621094,0.01915361328125
3.62018267708329,0.0909796630859375,9.99339772949219,-0.009576806640625
3.62221902810326,0.110133276367187,10.0029745361328,0.0335188232421875
3.62425537912322,0.110133276367187,10.0029745361328,-0.0143652099609375
3.62629173014319,0.076614453125,9.9981861328125,-0.0335188232421875
3.62832766069874,0.100556469726563,9.97903251953125,0.009576806640625
3.6303635912543,0.119710083007812,9.97424411621094,0.0
3.63239952180985,0.0718260498046875,10.0221281494141,0.0143652099609375
3.63436406152339,0.100556469726563,9.99339772949219,-0.0622492431640625
3.63632860123694,0.09576806640625,10.0173397460938,0.0239420166015625
3.63829314095048,0.09576806640625,9.96945571289062,0.0383072265625
3.64031825954857,0.124498486328125,10.0029745361328,-0.0143652099609375
3.64234337814666,0.0909796630859375,10.0317049560547,0.028730419921875
3.64436849674475,0.09576806640625,9.9981861328125,0.0430956298828125
3.64639042296003,0.09576806640625,9.97903251953125,-0.0143652099609375
3.6484123491753,0.143652099609375,9.94551369628906,-0.0143652099609375
3.65043427539058,0.100556469726563,9.99339772949219,0.0335188232421875
3.65245512586801,0.105344873046875,9.98382092285156,-0.009576806640625
3.65447597634544,0.0718260498046875,9.99339772949219,-0.009576806640625
3.65649682682287,0.105344873046875,10.0125513427734,-0.0239420166015625
3.65851847808155,0.076614453125,9.97424411621094,0.0335188232421875
3.66054012934024,0.1149216796875,10.0269165527344,-0.009576806640625
3.66256178059892,0.124498486328125,10.0077629394531,0.0383072265625
3.66452243934458,0.05746083984375,10.0173397460938,-0.028730419921875
3.66648309809024,0.110133276367187,10.0125513427734,-0.0622492431640625
3.6684437568359,0.143652099609375,10.0077629394531,-0.01915361328125
3.67047469986975,0.124498486328125,10.0029745361328,0.0047884033203125
3.6725056429036,0.086191259765625,9.9981861328125,-0.0047884033203125
3.67453658593746,0.09576806640625,9.99339772949219,-0.009576806640625
3.67656781608069,0.119710083007812,10.0173397460938,0.01915361328125
3.67859904622392,0.1149216796875,9.98860932617187,0.0430956298828125
3.68063027636715,0.1149216796875,9.97424411621094,-0.0383072265625
3.68266119455291,0.09576806640625,9.95987890625,0.0047884033203125
3.68469211273867,0.119710083007812,9.95987890625,-0.0239420166015625
3.68672303092444,0.076614453125,9.9981861328125,-0.0143652099609375
3.68875183767357,0.1149216796875,9.98860932617187,0.01915361328125
3.6907806444227,0.100556469726563,10.0077629394531,0.0047884033203125
3.69280945117183,0.143652099609375,9.96466730957031,0.0047884033203125
3.69477070898434,0.0814028564453125,9.98382092285156,-0.0383072265625
3.69673196679684,0.0909796630859375,9.97903251953125,0.0335188232421875
3.69869322460934,0.0909796630859375,9.9981861328125,-0.0143652099609375
3.70072388237843,0.0718260498046875,9.98382092285156,-0.009576806640625
3.70275454014753,0.105344873046875,10.0317049560547,-0.01915361328125
3.70478519791663,0.086191259765625,9.99339772949219,-0.0622492431640625
3.70681633018659,0.047884033203125,10.0317049560547,-0.01915361328125
3.70884746245656,0.076614453125,9.96466730957031,-0.0526724365234375
3.71087859472653,0.0909796630859375,9.9981861328125,-0.0430956298828125
3.71290941753468,0.105344873046875,9.9981861328125,0.0047884033203125
3.71494024034285,0.047884033203125,10.0317049560547,0.028730419921875
3.71697106315101,0.076614453125,10.0460701660156,-0.0047884033203125
3.71900035807288,0.076614453125,9.98860932617187,-0.0430956298828125
3.72102965299476,0.086191259765625,9.98382092285156,-0.0383072265625
3.72305894791663,0.110133276367187,9.98860932617187,0.0
3.72502058224823,0.0814028564453125,10.0173397460938,-0.0383072265625
3.72698221657983,0.0814028564453125,10.0508585693359,-0.0143652099609375
3.72894385091142,0.076614453125,10.0221281494141,0.009576806640625
3.73097449240448,0.0622492431640625,9.95030209960937,0.0
3.73300513389753,0.0909796630859375,9.9981861328125,0.009576806640625
3.73503577539059,0.086191259765625,10.0173397460938,-0.0383072265625
3.73706844238278,0.09576806640625,9.98860932617187,0.0335188232421875
3.73910110937496,0.076614453125,9.99339772949219,0.009576806640625
3.74113377636715,0.0814028564453125,10.0269165527344,-0.0622492431640625
3.74316577940535,0.119710083007812,10.0412817626953,0.0335188232421875
3.74519778244354,0.086191259765625,10.0029745361328,0.0047884033203125
3.74722978548174,0.105344873046875,9.9981861328125,0.0143652099609375
3.74926131391056,0.067037646484375,9.98382092285156,0.0383072265625
3.75129284233937,0.0622492431640625,10.0029745361328,-0.0047884033203125
3.75332437076819,0.0622492431640625,10.0221281494141,-0.0335188232421875
3.75535490928816,0.0909796630859375,10.0173397460938,-0.0239420166015625
3.75738544780812,0.067037646484375,10.0125513427734,0.0430956298828125
3.75941598632809,0.0622492431640625,10.0317049560547,0.009576806640625
3.76145237532549,0.09576806640625,10.0077629394531,0.009576806640625
3.76348876432288,0.0909796630859375,9.98860932617187,-0.047884033203125
3.76552515332028,0.09576806640625,9.97424411621094,0.0718260498046875
3.76756753483069,0.110133276367187,9.96466730957031,-0.009576806640625
3.76960991634111,0.105344873046875,9.99339772949219,-0.01915361328125
3.77165229785153,0.13407529296875,9.97903251953125,0.0047884033203125
3.77369636241316,0.086191259765625,9.9981861328125,-0.0383072265625
3.77574042697479,0.110133276367187,10.0029745361328,-0.0239420166015625
3.77778449153642,0.129286889648437,10.0077629394531,0.0335188232421875
3.77982930403642,0.0909796630859375,10.0029745361328,-0.0622492431640625
3.78187411653642,0.1149216796875,9.96945571289062,0.0383072265625
3.78391892903642,0.13407529296875,10.0125513427734,-0.0430956298828125
3.78596195529511,0.110133276367187,10.0077629394531,0.0430956298828125
3.78800498155379,0.1149216796875,10.036493359375,-0.0383072265625
3.79004800781247,0.0909796630859375,10.0029745361328,-0.0047884033203125
3.79208121126299,0.0814028564453125,10.0173397460938,-0.0383072265625
3.79411441471351,0.124498486328125,10.0029745361328,0.009576806640625
3.79614761816403,0.0430956298828125,10.0029745361328,0.0718260498046875
3.7981797146267,0.0814028564453125,10.0125513427734,-0.01915361328125
3.80021181108938,0.100556469726563,10.0029745361328,-0.0047884033203125
3.80224390755205,0.138863696289063,9.97903251953125,-0.0526724365234375
3.80427464811195,0.09576806640625,10.0221281494141,0.009576806640625
3.80630538867184,0.1149216796875,9.99339772949219,-0.0335188232421875
3.80833612923174,0.0814028564453125,9.99339772949219,0.009576806640625
3.81036842480466,0.105344873046875,10.0029745361328,-0.01915361328125
3.81240072037757,0.105344873046875,9.97424411621094,-0.086191259765625
3.81443301595049,0.100556469726563,9.98860932617187,-0.009576806640625
3.81640328114146,0.143652099609375,10.0556469726563,0.0047884033203125
3.81837354633243,0.09576806640625,9.98382092285156,-0.009576806640625
3.82034381152341,0.119710083007812,9.9981861328125,0.01915361328125
3.82237490559893,0.105344873046875,10.0029745361328,-0.0143652099609375
3.82440599967445,0.0814028564453125,10.0077629394531,-0.009576806640625
3.82643709374997,0.105344873046875,10.0125513427734,0.01915361328125
3.82847037250431,0.110133276367187,9.97903251953125,-0.009576806640625
3.83050365125865,0.0909796630859375,9.9981861328125,0.0526724365234375
3.83253693001299,0.0909796630859375,9.9981861328125,0.0
3.83457107769094,0.100556469726563,9.98382092285156,-0.0239420166015625
3.83660522536889,0.110133276367187,9.99339772949219,-0.0335188232421875
3.83863937304684,0.076614453125,9.9981861328125,-0.009576806640625
3.84067348101125,0.05746083984375,10.0125513427734,0.0047884033203125
3.84270758897566,0.0335188232421875,9.98382092285156,-0.0622492431640625
3.84474169694007,0.0622492431640625,10.0077629394531,0.0383072265625
3.84677484212236,0.076614453125,10.0077629394531,0.0383072265625
3.84880798730466,0.028730419921875,10.0173397460938,0.086191259765625
3.85084113248695,0.110133276367187,10.0029745361328,-0.0047884033203125
3.85287217773434,0.0814028564453125,9.98382092285156,-0.009576806640625
3.85490322298174,0.05746083984375,9.99339772949219,0.0047884033203125
3.85693426822914,0.100556469726563,10.0508585693359,-0.0383072265625
3.85896659917532,0.0909796630859375,10.0269165527344,-0.047884033203125
3.8609989301215,0.0526724365234375,9.98382092285156,0.01915361328125
3.86303126106768,0.067037646484375,10.0077629394531,-0.01915361328125
3.86506487000865,0.1149216796875,10.0173397460938,0.0526724365234375
3.86709847894962,0.105344873046875,10.0173397460938,-0.0526724365234375
3.86913208789059,0.119710083007812,10.0604353759766,-0.0430956298828125
3.87116547471785,0.09576806640625,9.9981861328125,-0.0335188232421875
3.87319886154511,0.076614453125,10.0173397460938,-0.0622492431640625
3.87523224837236,0.047884033203125,9.9981861328125,-0.0239420166015625
3.87726362489146,0.0718260498046875,9.96466730957031,-0.0383072265625
3.87929500141056,0.0718260498046875,9.99339772949219,-0.05746083984375
3.88132637792966,0.1149216796875,10.0125513427734,-0.028730419921875
3.88336034168834,0.110133276367187,10.0029745361328,0.0430956298828125
3.88539430544702,0.076614453125,10.0029745361328,0.0143652099609375
3.8874282692057,0.09576806640625,10.0173397460938,0.0383072265625
3.88946519010414,0.086191259765625,10.036493359375,-0.0047884033203125
3.89150211100257,0.100556469726563,10.0125513427734,0.0
3.89353903190101,0.124498486328125,10.0125513427734,0.0718260498046875
3.89557666471351,0.0909796630859375,10.0125513427734,-0.009576806640625
3.89761429752601,0.119710083007812,10.0029745361328,-0.0526724365234375
3.89965193033851,0.076614453125,9.98382092285156,-0.0383072265625
3.90168927137584,0.129286889648437,9.9981861328125,-0.086191259765625
3.90372661241316,0.0814028564453125,10.0173397460938,-0.0143652099609375
3.90576395345049,0.158017309570312,10.0029745361328,-0.0383072265625
3.90780043511282,0.110133276367187,9.9981861328125,-0.009576806640625
3.90983691677514,0.124498486328125,10.0221281494141,0.0
3.91187339843747,0.1149216796875,9.98382092285156,-0.0239420166015625
3.9138293301866,0.119710083007812,9.99339772949219,-0.0239420166015625
3.91578526193573,0.100556469726563,10.0173397460938,-0.0335188232421875
3.91774119368486,0.105344873046875,10.0077629394531,-0.01915361328125
3.91970115928816,0.124498486328125,10.0412817626953,0.0143652099609375
3.92166112489146,0.0718260498046875,9.99339772949219,0.01915361328125
3.92362109049476,0.0909796630859375,9.98382092285156,-0.0383072265625
3.92558012988278,0.100556469726563,9.98382092285156,0.028730419921875
3.9275391692708,0.067037646484375,10.0077629394531,0.0239420166015625
3.92949820865882,0.09576806640625,9.97903251953125,0.0
3.93145865288625,0.0814028564453125,10.0173397460938,-0.0383072265625
3.93341909711368,0.105344873046875,9.98860932617187,-0.0143652099609375
3.93537954134111,0.119710083007812,10.0317049560547,-0.0239420166015625
3.93734123947479,0.0909796630859375,10.0317049560547,-0.047884033203125
3.93930293760848,0.1149216796875,9.9981861328125,0.028730419921875
3.94126463574216,0.110133276367187,9.98382092285156,-0.0814028564453125
3.94328886892358,0.076614453125,10.0029745361328,0.0047884033203125
3.945313102105,0.119710083007812,10.0029745361328,-0.01915361328125
3.94733733528643,0.0718260498046875,9.97903251953125,-0.0239420166015625
3.94934379524736,0.105344873046875,10.0125513427734,0.047884033203125
3.9513502552083,0.0622492431640625,9.99339772949219,-0.0239420166015625
3.95335671516924,0.0909796630859375,9.98860932617187,0.0430956298828125
3.95533742111542,0.0526724365234375,10.0029745361328,0.0430956298828125
3.9573181270616,0.076614453125,9.9981861328125,-0.0335188232421875
3.95929883300778,0.05746083984375,9.97903251953125,0.0143652099609375
3.96126040190969,0.0909796630859375,10.0029745361328,-0.067037646484375
3.9632219708116,0.100556469726563,10.0317049560547,-0.0143652099609375
3.96518353971351,0.124498486328125,9.97424411621094,0.009576806640625
3.9671465723741,0.09576806640625,10.0077629394531,-0.0047884033203125
3.96910960503469,0.0909796630859375,10.0125513427734,-0.01915361328125
3.97107263769528,0.0909796630859375,9.98382092285156,-0.028730419921875
3.97310320019528,0.0718260498046875,10.0125513427734,0.05746083984375
3.97513376269528,0.105344873046875,9.98860932617187,-0.009576806640625
3.97716432519528,0.05746083984375,10.0221281494141,0.0047884033203125
3.97919618543833,0.067037646484375,10.0317049560547,0.009576806640625
3.98122804568139,0.047884033203125,9.98860932617187,-0.01915361328125
3.98325990592445,0.086191259765625,10.0029745361328,0.01915361328125
3.98529044965274,0.105344873046875,9.98860932617187,0.0239420166015625
3.98732099338104,0.0622492431640625,9.97424411621094,-0.0430956298828125
3.98935153710934,0.0814028564453125,9.98860932617187,-0.0335188232421875
3.99131286273868,0.100556469726563,9.97903251953125,0.009576806640625
3.99327418836802,0.1149216796875,10.0173397460938,0.0239420166015625
3.99523551399736,0.1149216796875,10.0412817626953,-0.01915361328125
3.99719757812497,0.067037646484375,10.0317049560547,0.0239420166015625
3.99915964225257,0.086191259765625,9.99339772949219,0.0335188232421875
4.00112170638018,0.100556469726563,9.99339772949219,-0.0335188232421875
4.0031525192057,0.0718260498046875,10.0317049560547,-0.047884033203125
4.00518333203122,0.0909796630859375,10.0173397460938,0.009576806640625
4.00721414485674,0.0909796630859375,10.0269165527344,-0.0143652099609375
4.00924805761715,0.0718260498046875,10.0125513427734,-0.028730419921875
4.01128197037757,0.09576806640625,10.0125513427734,0.0143652099609375
4.01331588313799,0.105344873046875,10.0173397460938,-0.0383072265625
4.01534828461368,0.0909796630859375,10.0173397460938,0.0143652099609375
4.01738068608938,0.138863696289063,9.97903251953125,-0.0622492431640625
4.01941308756507,0.1149216796875,9.97424411621094,0.0
4.02137606510413,0.067037646484375,10.0125513427734,-0.0143652099609375
4.0233390426432,0.086191259765625,10.0077629394531,-0.028730419921875
4.02530202018226,0.086191259765625,9.98382092285156,0.047884033203125
4.02726500759545,0.0909796630859375,9.96466730957031,0.0383072265625
4.02922799500865,0.076614453125,10.0125513427734,0.0239420166015625
4.03119098242184,0.0814028564453125,9.9981861328125,-0.009576806640625
4.03322060633677,0.076614453125,10.0029745361328,-0.01915361328125
4.03525023025171,0.105344873046875,9.9981861328125,-0.009576806640625
4.03727985416664,0.0526724365234375,9.9981861328125,0.0335188232421875
4.0393103255208,0.110133276367187,9.96945571289062,0.0143652099609375
4.04134079687497,0.110133276367187,9.9981861328125,0.0047884033203125
4.04337126822914,0.05746083984375,10.0125513427734,0.0047884033203125
4.04539992165796,0.100556469726563,10.0029745361328,0.0047884033203125
4.04742857508677,0.105344873046875,9.96945571289062,-0.0239420166015625
4.04945722851559,0.105344873046875,9.98382092285156,0.0239420166015625
4.05141527897132,0.124498486328125,9.95509050292969,0.0143652099609375
4.05337332942705,0.1149216796875,9.98860932617187,-0.0239420166015625
4.05533137988278,0.0909796630859375,9.98860932617187,0.01915361328125
4.05728863736976,0.0909796630859375,9.95030209960937,0.0143652099609375
4.05924589485674,0.1149216796875,9.9981861328125,0.009576806640625
4.06120315234372,0.076614453125,10.0125513427734,-0.0143652099609375
4.06322985796438,0.119710083007812,10.0077629394531,0.01915361328125
4.06525656358504,0.086191259765625,9.98860932617187,-0.0143652099609375
4.0672832692057,0.0718260498046875,9.9981861328125,0.0
4.06931548784719,0.0622492431640625,10.0125513427734,0.0
4.07134770648868,0.086191259765625,10.0221281494141,0.0383072265625
4.07337992513018,0.047884033203125,9.98382092285156,0.0335188232421875
4.07541269097219,0.086191259765625,9.99339772949219,-0.0430956298828125
4.0774454568142,0.086191259765625,10.0029745361328,-0.0814028564453125
4.07947822265622,0.0718260498046875,9.98860932617187,-0.0239420166015625
4.08143875640188,0.100556469726563,9.97424411621094,-0.0143652099609375
4.08339929014754,0.0909796630859375,10.0077629394531,-0.028730419921875
4.0853598238932,0.100556469726563,10.0029745361328,0.0047884033203125
4.08731757584632,0.076614453125,9.98860932617187,-0.047884033203125
4.08927532779945,0.076614453125,9.99339772949219,0.01915361328125
4.09123307975257,0.100556469726563,9.99339772949219,-0.009576806640625
4.09325461642792,0.105344873046875,10.0125513427734,-0.0143652099609375
4.09527615310327,0.124498486328125,9.97903251953125,-0.009576806640625
4.09729768977861,0.076614453125,10.0412817626953,0.01915361328125
4.09931923394094,0.0718260498046875,10.0029745361328,0.0143652099609375
4.10134077810327,0.0622492431640625,9.98860932617187,0.0143652099609375
4.10336232226559,0.09576806640625,9.95509050292969,0.0143652099609375
4.10538346278209,0.076614453125,10.0317049560547,-0.0718260498046875
4.10740460329858,0.129286889648437,9.96945571289062,-0.0335188232421875
4.10942574381507,0.129286889648437,10.0269165527344,-0.01915361328125
4.11138298871525,0.086191259765625,9.97903251953125,-0.047884033203125
4.11334023361542,0.110133276367187,9.97903251953125,0.0143652099609375
4.11529747851559,0.05746083984375,9.98382092285156,0.0239420166015625
4.11725676877167,0.119710083007812,10.0077629394531,0.0430956298828125
4.11921605902775,0.09576806640625,10.0221281494141,0.028730419921875
4.12117534928382,0.0814028564453125,10.0173397460938,0.0383072265625
4.1232043817274,0.0526724365234375,9.99339772949219,-0.009576806640625
4.12523341417098,0.086191259765625,9.99339772949219,-0.047884033203125
4.12726244661455,0.0909796630859375,9.99339772949219,0.0
4.12929074815535,0.105344873046875,10.0077629394531,0.0143652099609375
4.13131904969615,0.0909796630859375,10.0077629394531,0.067037646484375
4.13334735123695,0.110133276367187,9.98860932617187,0.0047884033203125
4.13537398784719,0.110133276367187,10.0173397460938,-0.009576806640625
4.13740062445743,0.0909796630859375,9.98860932617187,-0.009576806640625
4.13942726106768,0.119710083007812,10.0029745361328,-0.0335188232421875
4.14138481206594,0.0909796630859375,9.99339772949219,0.009576806640625
4.1433423630642,0.0718260498046875,9.95987890625,0.009576806640625
4.14529991406247,0.100556469726563,10.0221281494141,0.009576806640625
4.1472589021267,0.100556469726563,9.9981861328125,-0.0239420166015625
4.14921789019094,0.0909796630859375,9.96945571289062,0.028730419921875
4.15117687825518,0.076614453125,9.96945571289062,0.0239420166015625
4.15320542317705,0.110133276367187,10.0029745361328,-0.01915361328125
4.15523396809893,0.138863696289063,9.98382092285156,0.0143652099609375
4.1572625130208,0.110133276367187,10.0460701660156,0.0143652099609375
4.159290633355,0.105344873046875,9.98382092285156,0.0047884033203125
4.16131875368921,0.1149216796875,10.0029745361328,-0.0143652099609375
4.16334687402341,0.09576806640625,9.96466730957031,0.009576806640625
4.16537323003469,0.0909796630859375,9.98382092285156,0.01915361328125
4.16739958604598,0.076614453125,10.0029745361328,-0.0047884033203125
4.16942594205726,0.0814028564453125,9.9981861328125,0.0143652099609375
4.1713845833333,0.105344873046875,9.94072529296875,0.009576806640625
4.17334322460935,0.086191259765625,10.0221281494141,-0.01915361328125
4.17530186588539,0.047884033203125,10.0173397460938,0.0239420166015625
4.17733181532115,0.0718260498046875,10.0173397460938,0.0383072265625
4.17936176475692,0.086191259765625,10.0077629394531,0.009576806640625
4.18139171419268,0.09576806640625,10.0269165527344,0.009576806640625
4.18342230067271,0.0718260498046875,9.96945571289062,-0.028730419921875
4.18545288715275,0.086191259765625,10.0173397460938,-0.0047884033203125
4.18748347363278,0.0814028564453125,10.036493359375,0.0239420166015625
4.18951380175778,0.0909796630859375,10.0125513427734,0.0239420166015625
4.19154412988278,0.100556469726563,10.0173397460938,0.009576806640625
4.19357445800778,0.1149216796875,9.9981861328125,-0.0430956298828125
4.19560238476559,0.110133276367187,9.98860932617187,-0.0143652099609375
4.19763031152341,0.0909796630859375,9.98860932617187,0.0143652099609375
4.19965823828122,0.067037646484375,10.0173397460938,0.0047884033203125
4.20161888878035,0.110133276367187,10.0317049560547,-0.047884033203125
4.20357953927948,0.086191259765625,10.0173397460938,-0.0335188232421875
4.20554018977862,0.067037646484375,9.9981861328125,-0.0239420166015625
4.20756977137584,0.076614453125,9.98382092285156,-0.0047884033203125
4.20959935297306,0.110133276367187,9.95987890625,0.0
4.21162893457028,0.0718260498046875,10.0029745361328,-0.028730419921875
4.21366021712237,0.0718260498046875,9.97903251953125,-0.01915361328125
4.21569149967445,0.0622492431640625,10.0221281494141,-0.0143652099609375
4.21772278222653,0.076614453125,10.0460701660156,0.0047884033203125
4.21975603895396,0.0814028564453125,10.0173397460938,0.01915361328125
4.22178929568139,0.05746083984375,9.98382092285156,-0.0143652099609375
4.22382255240882,0.0909796630859375,10.0125513427734,0.01915361328125
4.22585448437497,0.086191259765625,10.0317049560547,-0.0047884033203125
4.22788641634111,0.067037646484375,9.9981861328125,-0.0047884033203125
4.22991834830726,0.09576806640625,10.0029745361328,-0.076614453125
4.23187656054684,0.05746083984375,10.0269165527344,-0.0622492431640625
4.23383477278643,0.0909796630859375,9.97903251953125,-0.0335188232421875
4.23579298502601,0.086191259765625,10.0125513427734,-0.0143652099609375
4.23781671571177,0.067037646484375,10.036493359375,-0.0143652099609375
4.23984044639754,0.124498486328125,9.99339772949219,-0.105344873046875
4.2418641770833,0.100556469726563,9.98860932617187,-0.01915361328125
4.24388842046438,0.086191259765625,9.98860932617187,0.0047884033203125
4.24591266384545,0.124498486328125,9.95987890625,-0.0143652099609375
4.24793690722653,0.100556469726563,9.99339772949219,0.01915361328125
4.24996146538625,0.0909796630859375,9.95509050292969,-0.0143652099609375
4.25198602354598,0.0909796630859375,9.96945571289062,-0.01915361328125
4.2540105817057,0.09576806640625,10.0077629394531,-0.0430956298828125
4.25603445768226,0.09576806640625,10.0029745361328,0.0335188232421875
4.25805833365882,0.076614453125,10.0173397460938,0.009576806640625
4.26008220963539,0.086191259765625,9.99339772949219,-0.0143652099609375
4.26204193869354,0.100556469726563,10.0317049560547,-0.0430956298828125
4.2640016677517,0.0814028564453125,10.0125513427734,-0.0047884033203125
4.26596139680986,0.100556469726563,9.97424411621094,0.01915361328125
4.26799094921872,0.0909796630859375,10.036493359375,-0.028730419921875
4.27002050162757,0.0383072265625,9.98382092285156,0.0430956298828125
4.27205005403643,0.138863696289063,9.99339772949219,-0.009576806640625
4.27408016937931,0.1149216796875,10.0125513427734,-0.0047884033203125
4.27611028472219,0.110133276367187,9.98860932617187,-0.009576806640625
4.27814040006507,0.105344873046875,10.0221281494141,-0.009576806640625
4.28017010460066,0.0718260498046875,10.0125513427734,-0.028730419921875
4.28219980913625,0.076614453125,10.0029745361328,-0.028730419921875
4.28422951367184,0.0909796630859375,10.0412817626953,0.0383072265625
4.28625732584632,0.09576806640625,10.0029745361328,0.0
4.2882851380208,0.09576806640625,9.98860932617187,0.0239420166015625
4.29031295019528,0.124498486328125,9.99339772949219,-0.009576806640625
4.29227355132375,0.0526724365234375,9.9981861328125,0.0239420166015625
4.29423415245222,0.0814028564453125,10.0029745361328,-0.0047884033203125
4.29619475358069,0.076614453125,10.0077629394531,-0.01915361328125
4.29822453721785,0.110133276367187,9.99339772949219,0.0047884033203125
4.300254320855,0.124498486328125,10.0173397460938,-0.009576806640625
4.30228410449215,0.09576806640625,9.98382092285156,-0.0239420166015625
4.30431397819007,0.086191259765625,9.9981861328125,-0.009576806640625
4.30634385188799,0.0718260498046875,10.036493359375,0.01915361328125
4.3083737255859,0.09576806640625,10.0508585693359,0.0
4.31040289659285,0.138863696289063,9.9981861328125,0.009576806640625
4.31243206759979,0.0718260498046875,9.9981861328125,-0.0239420166015625
4.31446123860674,0.086191259765625,9.97903251953125,-0.0814028564453125
4.31648957877601,0.100556469726563,10.0556469726563,0.0
4.31851791894528,0.0430956298828125,10.036493359375,-0.009576806640625
4.32054625911455,0.05746083984375,10.0125513427734,-0.028730419921875
4.32250672634545,0.047884033203125,10.0269165527344,-0.0143652099609375
4.32446719357635,0.05746083984375,10.0125513427734,0.0
4.32642766080726,0.0814028564453125,9.98382092285156,-0.0335188232421875
4.32845760460066,0.076614453125,10.0029745361328,0.0239420166015625
4.33048754839406,0.09576806640625,10.0077629394531,0.0143652099609375
4.33251749218747,0.067037646484375,9.97903251953125,-0.009576806640625
4.33454800878903,0.0814028564453125,10.0317049560547,0.0047884033203125
4.33657852539059,0.0622492431640625,10.0173397460938,0.067037646484375
4.33860904199215,0.05746083984375,9.9981861328125,-0.067037646484375
4.34063888552514,0.0335188232421875,9.98382092285156,-0.0143652099609375
4.34266872905812,0.047884033203125,9.96945571289062,0.0383072265625
4.34469857259111,0.129286889648437,9.96466730957031,-0.01915361328125
4.34672691666663,0.1149216796875,9.97903251953125,0.01915361328125
4.34875526074215,0.0909796630859375,9.97903251953125,0.0239420166015625
4.35078360481767,0.0909796630859375,9.9981861328125,-0.0430956298828125
4.3527434193793,0.1149216796875,9.97903251953125,-0.0047884033203125
4.35470323394094,0.0909796630859375,9.96466730957031,0.047884033203125
4.35666304850257,0.067037646484375,9.97903251953125,-0.0383072265625
4.35869130295135,0.0814028564453125,9.98382092285156,0.0239420166015625
4.36071955740014,0.086191259765625,9.98382092285156,0.0047884033203125
4.36274781184892,0.086191259765625,10.0077629394531,-0.009576806640625
4.36477894813365,0.0909796630859375,10.0029745361328,-0.01915361328125
4.36681008441837,0.0622492431640625,10.0125513427734,0.0047884033203125
4.36884122070309,0.100556469726563,9.95987890625,-0.0047884033203125
4.37087436914059,0.09576806640625,9.98860932617187,0.0239420166015625
4.37290751757809,0.124498486328125,9.97903251953125,0.0
4.37494066601559,0.0909796630859375,9.9981861328125,0.0143652099609375
4.37697311805552,0.100556469726563,9.99339772949219,0.0143652099609375
4.37900557009545,0.086191259765625,10.0173397460938,0.0047884033203125
4.38103802213538,0.076614453125,10.0221281494141,-0.028730419921875
4.3829989646267,0.0814028564453125,10.0173397460938,0.0
4.38495990711802,0.105344873046875,10.0029745361328,-0.0335188232421875
4.38692084960934,0.1149216796875,9.98382092285156,0.0047884033203125
4.38894558007809,0.1149216796875,9.9981861328125,-0.05746083984375
4.39097031054684,0.076614453125,9.99339772949219,-0.067037646484375
4.39299504101559,0.119710083007812,10.0125513427734,-0.028730419921875
4.39501810861541,0.0909796630859375,10.0556469726563,-0.0430956298828125
4.39704117621524,0.129286889648437,10.0221281494141,-0.0383072265625
4.39906424381507,0.086191259765625,9.97424411621094,0.0383072265625
4.40108706966142,0.0814028564453125,10.0077629394531,-0.009576806640625
4.40310989550778,0.067037646484375,9.99339772949219,-0.0239420166015625
4.40513272135413,0.129286889648437,10.0269165527344,0.0143652099609375
4.40715473632809,0.100556469726563,10.0173397460938,0.0
4.40917675130205,0.13407529296875,10.0077629394531,-0.009576806640625
4.41119876627601,0.0909796630859375,10.0125513427734,-0.0047884033203125
4.4131591817491,0.0430956298828125,9.98382092285156,0.0430956298828125
4.41511959722219,0.067037646484375,9.98860932617187,-0.009576806640625
4.41708001269528,0.0718260498046875,10.0029745361328,0.0622492431640625
4.41910936773,0.0909796630859375,9.99339772949219,-0.009576806640625
4.42113872276472,0.0909796630859375,10.0077629394531,0.047884033203125
4.42316807779944,0.105344873046875,10.0077629394531,0.067037646484375
4.4251981770833,0.0909796630859375,10.0269165527344,-0.0430956298828125
4.42722827636715,0.0335188232421875,9.98860932617187,-0.028730419921875
4.42925837565101,0.0909796630859375,10.0508585693359,-0.0143652099609375
4.43128739084198,0.086191259765625,10.0221281494141,-0.047884033203125
4.43331640603295,0.100556469726563,9.98860932617187,0.0143652099609375
4.43534542122392,0.0909796630859375,10.0029745361328,0.0047884033203125
4.43737370670569,0.0909796630859375,10.0412817626953,-0.0047884033203125
4.43940199218746,0.105344873046875,9.98860932617187,-0.0383072265625
4.44143027766924,0.076614453125,10.0125513427734,-0.076614453125
4.44338987977427,0.0814028564453125,9.98860932617187,-0.076614453125
4.4453494818793,0.076614453125,9.96466730957031,-0.0383072265625
4.44730908398434,0.100556469726563,9.98860932617187,-0.0143652099609375
4.44933797981767,0.100556469726563,9.97903251953125,-0.0383072265625
4.45136687565101,0.0814028564453125,9.97903251953125,-0.05746083984375
4.45339577148434,0.124498486328125,10.0269165527344,0.009576806640625
4.45542480240882,0.1149216796875,10.0317049560547,0.0430956298828125
4.4574538333333,0.086191259765625,9.98382092285156,-0.0143652099609375
4.45948286425778,0.086191259765625,10.0077629394531,0.0335188232421875
4.46151194639753,0.0909796630859375,9.97903251953125,-0.0047884033203125
4.46354102853729,0.047884033203125,10.0173397460938,-0.0335188232421875
4.46557011067705,0.100556469726563,10.0029745361328,0.028730419921875
4.46759774848086,0.124498486328125,10.0077629394531,0.0143652099609375
4.46962538628468,0.100556469726563,10.0173397460938,-0.0047884033203125
4.4716530240885,0.0718260498046875,9.97424411621094,-0.01915361328125
4.47361298285587,0.0909796630859375,10.0029745361328,0.0383072265625
4.47557294162323,0.076614453125,9.99339772949219,-0.0239420166015625
4.47753290039059,0.100556469726563,9.95030209960937,0.05746083984375
4.47956236707896,0.086191259765625,10.0173397460938,-0.0047884033203125
4.48159183376732,0.086191259765625,9.98860932617187,0.0
4.48362130045569,0.110133276367187,9.96945571289062,0.0047884033203125
4.48565204307722,0.124498486328125,9.97903251953125,-0.0526724365234375
4.48768278569875,0.105344873046875,9.97424411621094,0.0430956298828125
4.48971352832027,0.105344873046875,10.0125513427734,0.01915361328125
4.49174385047739,0.076614453125,9.95987890625,0.0239420166015625
4.49377417263451,0.105344873046875,9.99339772949219,0.0
4.49580449479163,0.105344873046875,9.97424411621094,0.0047884033203125
4.49783274338104,0.105344873046875,9.9981861328125,0.01915361328125
4.49986099197045,0.124498486328125,9.98860932617187,0.0047884033203125
4.50188924055986,0.09576806640625,10.0269165527344,-0.0047884033203125
4.50384938563364,0.076614453125,10.0125513427734,0.0383072265625
4.50580953070743,0.1149216796875,9.97424411621094,0.0335188232421875
4.50776967578121,0.1149216796875,10.0221281494141,-0.0143652099609375
4.50979839029944,0.138863696289063,9.9981861328125,0.0143652099609375
4.51182710481767,0.110133276367187,9.9981861328125,-0.0239420166015625
4.5138558193359,0.138863696289063,10.0029745361328,-0.0335188232421875
4.51588741905378,0.076614453125,9.98382092285156,-0.047884033203125
4.51791901877166,0.067037646484375,10.0125513427734,-0.009576806640625
4.51995061848954,0.124498486328125,10.0173397460938,0.009576806640625
4.52198517491315,0.067037646484375,9.96945571289062,0.0
4.52401973133677,0.09576806640625,9.97903251953125,-0.0047884033203125
4.52605428776038,0.0814028564453125,9.9981861328125,0.01915361328125
4.52808840624996,0.110133276367187,10.0077629394531,-0.0335188232421875
4.53012252473954,0.0909796630859375,9.98382092285156,0.0526724365234375
4.53215664322913,0.1149216796875,9.97424411621094,-0.05746083984375
4.53411771419267,0.09576806640625,9.9981861328125,0.009576806640625
4.53607878515621,0.0622492431640625,9.9981861328125,0.0239420166015625
4.53803985611975,0.110133276367187,10.0029745361328,0.0
4.54005884830725,0.0814028564453125,10.0029745361328,-0.0047884033203125
4.54207784049475,0.09576806640625,10.0317049560547,0.0239420166015625
4.54409683268225,0.05746083984375,10.0029745361328,-0.047884033203125
4.54611460080291,0.0622492431640625,10.0125513427734,0.009576806640625
4.54813236892357,0.0909796630859375,10.0077629394531,0.05746083984375
4.55015013704423,0.0814028564453125,10.0460701660156,0.0239420166015625
4.55216788118486,0.105344873046875,10.0604353759766,0.028730419921875
4.55418562532548,0.0909796630859375,10.0125513427734,-0.05746083984375
4.55620336946611,0.100556469726563,10.036493359375,-0.028730419921875
4.55822066167531,0.0718260498046875,9.98860932617187,0.009576806640625
4.56023795388451,0.086191259765625,10.0221281494141,-0.05746083984375
4.56225524609371,0.067037646484375,9.9981861328125,-0.0335188232421875
4.56421204926211,0.0814028564453125,9.98382092285156,-0.01915361328125
4.56616885243052,0.0814028564453125,9.96945571289062,0.0
4.56812565559892,0.076614453125,10.0317049560547,-0.0430956298828125
4.57015082628034,0.067037646484375,10.0125513427734,0.0383072265625
4.57217599696177,0.110133276367187,10.0077629394531,-0.01915361328125
4.57420116764319,0.067037646484375,9.9981861328125,-0.105344873046875
4.57622801204423,0.0909796630859375,10.0269165527344,-0.0430956298828125
4.57825485644527,0.0718260498046875,10.0221281494141,0.01915361328125
4.58028170084632,0.105344873046875,10.0317049560547,-0.047884033203125
4.58230654709197,0.0718260498046875,9.98382092285156,-0.009576806640625
4.58433139333763,0.100556469726563,10.0125513427734,0.0047884033203125
4.58635623958329,0.105344873046875,10.036493359375,-0.0047884033203125
4.58837626605899,0.05746083984375,9.98382092285156,-0.028730419921875
4.59039629253468,0.0718260498046875,10.0317049560547,0.0
4.59241631901038,0.076614453125,9.9981861328125,-0.009576806640625
4.59437524262149,0.028730419921875,9.9981861328125,0.0143652099609375
4.5963341662326,0.0718260498046875,9.99339772949219,0.009576806640625
4.59829308984371,0.110133276367187,10.0125513427734,-0.086191259765625
4.60032003884545,0.124498486328125,9.97903251953125,0.0430956298828125
4.60234698784718,0.0718260498046875,9.9981861328125,0.01915361328125
4.60437393684892,0.105344873046875,10.0221281494141,-0.0622492431640625
4.60639971440968,0.09576806640625,9.97424411621094,-0.028730419921875
4.60842549197045,0.100556469726563,10.0125513427734,0.0239420166015625
4.61045126953121,0.09576806640625,10.0029745361328,-0.0430956298828125
4.6124764584418,0.05746083984375,9.96466730957031,0.028730419921875
4.61450164735239,0.100556469726563,9.96466730957031,-0.047884033203125
4.61652683626298,0.124498486328125,9.99339772949219,-0.009576806640625
4.61855216807722,0.0622492431640625,9.96466730957031,0.0430956298828125
4.62057749989145,0.076614453125,9.96466730957031,-0.0239420166015625
4.62260283170569,0.100556469726563,10.0412817626953,0.01915361328125
4.62456225010847,0.0718260498046875,10.0221281494141,0.028730419921875
4.62652166851125,0.086191259765625,9.96945571289062,-0.009576806640625
4.62848108691402,0.086191259765625,10.0029745361328,-0.0718260498046875
4.63051076258677,0.0909796630859375,9.9981861328125,-0.0047884033203125
4.63254043825951,0.047884033203125,10.0173397460938,-0.009576806640625
4.63457011393225,0.09576806640625,9.97903251953125,-0.028730419921875
4.63659969173173,0.110133276367187,9.98382092285156,-0.009576806640625
4.63862926953121,0.09576806640625,10.0125513427734,-0.009576806640625
4.64065884733069,0.0909796630859375,10.0221281494141,0.009576806640625
4.64268795713972,0.09576806640625,9.99339772949219,-0.009576806640625
4.64471706694875,0.076614453125,10.0029745361328,0.0335188232421875
4.64674617675777,0.105344873046875,9.97424411621094,0.0239420166015625
4.64877522547739,0.100556469726563,9.97903251953125,-0.0047884033203125
4.65080427419701,0.100556469726563,10.0221281494141,-0.047884033203125
4.65283332291663,0.105344873046875,10.0125513427734,-0.0239420166015625
4.65479196028642,0.129286889648437,10.0029745361328,-0.047884033203125
4.65675059765621,0.0909796630859375,10.0317049560547,0.0
4.658709235026,0.076614453125,9.9981861328125,-0.028730419921875
4.66073405805118,0.100556469726563,10.0077629394531,0.028730419921875
4.66275888107635,0.0814028564453125,10.0173397460938,0.0335188232421875
4.66478370410152,0.05746083984375,10.0173397460938,0.0239420166015625
4.66681322113711,0.0622492431640625,9.96466730957031,-0.01915361328125
4.6688427381727,0.119710083007812,10.0029745361328,0.0143652099609375
4.67087225520829,0.0814028564453125,10.0221281494141,-0.01915361328125
4.67290265744354,0.129286889648437,10.0077629394531,0.0143652099609375
4.67493305967878,0.09576806640625,10.0125513427734,0.01915361328125
4.67696346191402,0.076614453125,10.0269165527344,0.009576806640625
4.67899292513017,0.086191259765625,9.9981861328125,-0.0047884033203125
4.68102238834631,0.086191259765625,9.96466730957031,0.028730419921875
4.68305185156246,0.067037646484375,10.0221281494141,-0.01915361328125
4.685014781901,0.0814028564453125,9.98860932617187,-0.0335188232421875
4.68697771223954,0.086191259765625,9.98382092285156,-0.0383072265625
4.68894064257808,0.110133276367187,9.99339772949219,0.0430956298828125
4.69096236382374,0.119710083007812,10.0173397460938,-0.0239420166015625
4.6929840850694,0.076614453125,10.0125513427734,-0.05746083984375
4.69500580631506,0.0909796630859375,10.0460701660156,-0.0239420166015625
4.69702703841142,0.0909796630859375,10.0460701660156,-0.0143652099609375
4.69904827050777,0.0814028564453125,10.0460701660156,0.0239420166015625
4.70106950260413,0.0909796630859375,9.97903251953125,0.0047884033203125
4.70308933680552,0.0909796630859375,9.9981861328125,-0.01915361328125
4.7051091710069,0.0909796630859375,9.9981861328125,0.0
4.70712900520829,0.1149216796875,9.9981861328125,-0.067037646484375
4.70914782584631,0.119710083007812,10.0556469726563,0.009576806640625
4.71116664648433,0.0909796630859375,10.0029745361328,-0.0047884033203125
4.71318546712235,0.0909796630859375,10.0269165527344,0.0335188232421875
4.71514395052079,0.110133276367187,9.99339772949219,0.0143652099609375
4.71710243391923,0.129286889648437,10.0029745361328,-0.009576806640625
4.71906091731767,0.124498486328125,10.0221281494141,-0.0430956298828125
4.72108792480465,0.09576806640625,9.9981861328125,-0.0143652099609375
4.72311493229163,0.105344873046875,9.97424411621094,-0.0143652099609375
4.72514193977861,0.110133276367187,9.99339772949219,-0.009576806640625
4.72717082172305,0.110133276367187,9.98860932617187,0.0047884033203125
4.72919970366749,0.105344873046875,9.96945571289062,-0.028730419921875
4.73122858561194,0.105344873046875,9.96466730957031,-0.0143652099609375
4.73325818315968,0.124498486328125,10.0221281494141,-0.028730419921875
4.73528778070743,0.067037646484375,9.98860932617187,0.009576806640625
4.73731737825517,0.09576806640625,9.9981861328125,-0.0143652099609375
4.73934565885413,0.047884033203125,9.9981861328125,-0.01915361328125
4.74137393945309,0.09576806640625,10.0077629394531,0.028730419921875
4.74340222005204,0.138863696289063,10.0221281494141,-0.028730419921875
4.74536371679684,0.0814028564453125,9.98860932617187,0.0143652099609375
4.74732521354163,0.110133276367187,9.99339772949219,-0.0622492431640625
4.74928671028642,0.0814028564453125,10.0317049560547,-0.05746083984375
4.75131580946177,0.138863696289063,10.0077629394531,0.0143652099609375
4.75334490863711,0.0718260498046875,9.99339772949219,0.01915361328125
4.75537400781246,0.100556469726563,10.0173397460938,0.009576806640625
4.75740409841576,0.1149216796875,10.0221281494141,-0.0047884033203125
4.75943418901906,0.1149216796875,10.0221281494141,-0.0047884033203125
4.76146427962236,0.086191259765625,10.0173397460938,0.009576806640625
4.76349624424909,0.0814028564453125,10.0125513427734,0.067037646484375
4.76552820887583,0.110133276367187,10.0269165527344,0.0047884033203125
4.76756017350256,0.09576806640625,10.0221281494141,-0.0383072265625
4.76959219097218,0.105344873046875,9.97903251953125,0.01915361328125
4.7716242084418,0.1149216796875,10.0077629394531,0.0430956298828125
4.77365622591142,0.110133276367187,9.98382092285156,-0.0622492431640625
4.77562059407548,0.100556469726563,9.96466730957031,0.01915361328125
4.77758496223954,0.100556469726563,9.99339772949219,0.0383072265625
4.77954933040361,0.100556469726563,9.97903251953125,-0.0622492431640625
4.78157668250864,0.05746083984375,9.99339772949219,-0.05746083984375
4.78360403461368,0.0718260498046875,10.0125513427734,-0.009576806640625
4.78563138671871,0.0718260498046875,10.0077629394531,0.01915361328125
4.78766199674475,0.0526724365234375,9.98382092285156,-0.0047884033203125
4.78969260677079,0.0718260498046875,9.98860932617187,-0.0383072265625
4.79172321679684,0.086191259765625,10.036493359375,-0.0143652099609375
4.79375423480899,0.09576806640625,10.0221281494141,-0.05746083984375
4.79578525282114,0.105344873046875,9.98382092285156,-0.0047884033203125
4.79781627083329,0.047884033203125,9.97903251953125,-0.0814028564453125
4.79984733995222,0.09576806640625,9.97424411621094,0.028730419921875
4.80187840907114,0.0526724365234375,9.97424411621094,-0.0047884033203125
4.80390947819006,0.0909796630859375,9.99339772949219,-0.028730419921875
4.80587471104597,0.1149216796875,10.0077629394531,-0.047884033203125
4.80783994390187,0.0909796630859375,10.0269165527344,-0.0335188232421875
4.80980517675777,0.0383072265625,10.0221281494141,-0.0047884033203125
4.81183689366316,0.09576806640625,9.98860932617187,0.0047884033203125
4.81386861056854,0.0814028564453125,9.97424411621094,-0.067037646484375
4.81590032747392,0.076614453125,9.97903251953125,-0.028730419921875
4.81793957573781,0.076614453125,9.98860932617187,-0.01915361328125
4.8199788240017,0.0909796630859375,9.97903251953125,0.05746083984375
4.82201807226559,0.0814028564453125,10.0029745361328,-0.0239420166015625
4.8240609928385,0.09576806640625,10.0077629394531,0.0047884033203125
4.82610391341142,0.086191259765625,9.98860932617187,0.0143652099609375
4.82814683398433,0.1149216796875,9.99339772949219,-0.0239420166015625
4.83019017849388,0.067037646484375,10.0077629394531,-0.028730419921875
4.83223352300343,0.0909796630859375,10.0029745361328,-0.0143652099609375
4.83427686751298,0.100556469726563,10.0269165527344,-0.0143652099609375
4.83625087749562,0.076614453125,9.98382092285156,0.0526724365234375
4.83822488747826,0.13407529296875,9.97424411621094,0.01915361328125
4.8401988974609,0.100556469726563,9.95987890625,0.047884033203125
4.84222511707895,0.076614453125,9.9981861328125,-0.0239420166015625
4.84425133669701,0.076614453125,9.9981861328125,0.0
4.84627755631506,0.076614453125,10.0029745361328,0.009576806640625
4.84830509071176,0.119710083007812,10.0029745361328,-0.110133276367187
4.85033262510846,0.0718260498046875,9.9981861328125,-0.0430956298828125
4.85236015950517,0.09576806640625,9.98860932617187,-0.0047884033203125
4.85438847395829,0.0909796630859375,10.0029745361328,0.0526724365234375
4.85641678841141,0.100556469726563,10.0125513427734,0.01915361328125
4.85844510286454,0.047884033203125,10.036493359375,-0.0047884033203125
4.86047415885412,0.086191259765625,9.97903251953125,-0.0047884033203125
4.86250321484371,0.0909796630859375,10.0125513427734,-0.067037646484375
4.86453227083329,0.0718260498046875,9.96945571289062,0.0718260498046875
4.86649503569874,0.124498486328125,10.0077629394531,0.0239420166015625
4.86845780056419,0.086191259765625,9.9981861328125,-0.0047884033203125
4.87042056542964,0.0814028564453125,9.96945571289062,-0.09576806640625
4.87245223676211,0.110133276367187,9.93114848632812,-0.0047884033203125
4.87448390809458,0.086191259765625,9.98382092285156,0.028730419921875
4.87651557942704,0.0622492431640625,10.0077629394531,-0.028730419921875
4.87854818283416,0.086191259765625,10.0173397460938,0.0143652099609375
4.88058078624128,0.076614453125,9.99339772949219,-0.0239420166015625
4.8826133896484,0.09576806640625,9.99339772949219,-0.01915361328125
4.88464723111975,0.100556469726563,10.0077629394531,0.0047884033203125
4.8866810725911,0.05746083984375,10.0173397460938,-0.0383072265625
4.88871491406246,0.1149216796875,9.98382092285156,-0.009576806640625
4.89074776486541,0.0622492431640625,10.0029745361328,-0.01915361328125
4.89278061566836,0.138863696289063,10.0077629394531,0.01915361328125
4.89481346647131,0.0622492431640625,9.96945571289062,0.0047884033203125
4.89677740917964,0.0814028564453125,9.98382092285156,0.047884033203125
4.89874135188798,0.110133276367187,9.99339772949219,0.0383072265625
4.90070529459631,0.110133276367187,9.98860932617187,0.0047884033203125
4.90266965277774,0.13407529296875,9.97903251953125,0.0047884033203125
4.90463401095916,0.05746083984375,9.97424411621094,0.0143652099609375
4.90659836914058,0.09576806640625,10.0029745361328,-0.01915361328125
4.9086283100043,0.0526724365234375,10.0221281494141,-0.0383072265625
4.91065825086801,0.09576806640625,10.0029745361328,-0.009576806640625
4.91268819173173,0.105344873046875,9.97424411621094,0.0
4.91471921961801,0.05746083984375,10.0317049560547,-0.028730419921875
4.9167502475043,0.067037646484375,10.0173397460938,0.009576806640625
4.91878127539058,0.0622492431640625,9.98382092285156,-0.05746083984375
4.92081130240881,0.086191259765625,10.0077629394531,-0.0239420166015625
4.92284132942704,0.105344873046875,10.0173397460938,-0.0526724365234375
4.92487135644527,0.0430956298828125,10.0077629394531,-0.0047884033203125
4.92683304568138,0.1149216796875,10.0077629394531,-0.009576806640625
4.92879473491749,0.047884033203125,10.036493359375,-0.028730419921875
4.9307564241536,0.076614453125,9.9981861328125,-0.0239420166015625
4.93271899793832,0.100556469726563,10.0029745361328,0.0383072265625
4.93468157172305,0.09576806640625,10.0173397460938,-0.0143652099609375
4.93664414550777,0.0718260498046875,9.9981861328125,0.0335188232421875
4.93867927929683,0.0909796630859375,10.0077629394531,-0.01915361328125
4.94071441308589,0.100556469726563,10.0269165527344,-0.0526724365234375
4.94274954687495,0.09576806640625,10.0173397460938,0.0047884033203125
4.9447873023003,0.0909796630859375,10.0269165527344,0.01915361328125
4.94682505772565,0.0814028564453125,9.98382092285156,-0.0047884033203125
4.94886281315099,0.105344873046875,9.97424411621094,0.0143652099609375
4.95082963628467,0.086191259765625,10.0173397460938,0.0047884033203125
4.95279645941835,0.086191259765625,9.97903251953125,0.0047884033203125
4.95476328255203,0.105344873046875,10.0077629394531,0.0430956298828125
4.95672989225256,0.105344873046875,9.9981861328125,0.05746083984375
4.95869650195308,0.0526724365234375,10.0269165527344,0.0047884033203125
4.9606631116536,0.0526724365234375,10.0077629394531,-0.0143652099609375
4.96262992534717,0.1149216796875,10.036493359375,0.076614453125
4.96459673904075,0.0909796630859375,9.98382092285156,-0.0239420166015625
4.96656355273433,0.086191259765625,9.97903251953125,-0.01915361328125
4.96859307931853,0.09576806640625,9.97903251953125,0.009576806640625
4.97062260590273,0.105344873046875,9.97903251953125,0.028730419921875
4.97265213248693,0.0526724365234375,10.0029745361328,0.0239420166015625
4.97468570746523,0.0622492431640625,10.0460701660156,-0.0430956298828125
4.97671928244353,0.100556469726563,10.0077629394531,0.076614453125
4.97875285742183,0.086191259765625,9.99339772949219,-0.0047884033203125
4.98072039029943,0.0909796630859375,9.98860932617187,0.0526724365234375
4.98268792317704,0.086191259765625,10.0173397460938,-0.0239420166015625
4.98465545605464,0.067037646484375,9.99339772949219,-0.0143652099609375
4.98662263802079,0.0814028564453125,10.0029745361328,-0.0239420166015625
4.98858981998693,0.1149216796875,9.99339772949219,-0.0430956298828125
4.99055700195308,0.0814028564453125,10.0173397460938,0.0143652099609375
4.99252418305117,0.1149216796875,9.9981861328125,0.009576806640625
4.99449136414926,0.076614453125,9.99339772949219,0.0
4.99645854524735,0.0622492431640625,10.0029745361328,0.0239420166015625
4.99848373415794,0.076614453125,9.9981861328125,0.0239420166015625
5.00050892306853,0.086191259765625,9.98860932617187,0.0047884033203125
5.00253411197912,0.1149216796875,10.0460701660156,0.0047884033203125
5.00456070062929,0.110133276367187,9.9981861328125,-0.01915361328125
5.00658728927947,0.0909796630859375,10.036493359375,-0.0622492431640625
5.00861387792964,0.067037646484375,9.99339772949219,-0.0239420166015625
5.01057247037756,0.0622492431640625,10.0125513427734,-0.0239420166015625
5.01253106282547,0.05746083984375,9.98860932617187,-0.05746083984375
5.01448965527339,0.0622492431640625,10.0269165527344,0.0
5.01644680240881,0.086191259765625,10.0317049560547,-0.0047884033203125
5.01840394954422,0.0909796630859375,10.0077629394531,0.047884033203125
5.02036109667964,0.0909796630859375,10.0269165527344,-0.0718260498046875
5.02231827907981,0.105344873046875,10.0029745361328,0.0047884033203125
5.02427546147999,0.09576806640625,10.0077629394531,0.0239420166015625
5.02623264388016,0.067037646484375,10.036493359375,0.0383072265625
5.02826171744787,0.0718260498046875,10.036493359375,-0.0143652099609375
5.03029079101558,0.0622492431640625,10.0029745361328,0.028730419921875
5.03231986458329,0.086191259765625,9.9981861328125,0.0239420166015625
5.03435134830725,0.086191259765625,9.9981861328125,0.01915361328125
5.0363828320312,0.0814028564453125,9.9981861328125,-0.0047884033203125
5.03841431575516,0.0909796630859375,10.0077629394531,0.009576806640625
5.04037623372391,0.0909796630859375,9.98382092285156,0.0047884033203125
5.04233815169266,0.0526724365234375,10.0077629394531,0.0047884033203125
5.04430006966141,0.09576806640625,10.0412817626953,0.0
5.04626216503902,0.105344873046875,9.98860932617187,-0.047884033203125
5.04822426041662,0.076614453125,9.97903251953125,-0.05746083984375
5.05018635579423,0.0622492431640625,9.98860932617187,-0.01915361328125
5.05214889268659,0.0909796630859375,10.0221281494141,-0.0335188232421875
5.05411142957895,0.0909796630859375,9.98382092285156,0.01915361328125
5.05607396647131,0.05746083984375,9.98382092285156,-0.028730419921875
5.05810207530378,0.09576806640625,10.0269165527344,-0.0143652099609375
5.06013018413624,0.124498486328125,10.0077629394531,-0.0383072265625
5.06215829296871,0.09576806640625,10.0125513427734,0.01915361328125
5.0641863554687,0.110133276367187,10.0077629394531,-0.0047884033203125
5.0662144179687,0.067037646484375,10.0269165527344,0.0047884033203125
5.0682424804687,0.067037646484375,9.98382092285156,-0.0143652099609375
5.0702022304687,0.124498486328125,10.0173397460938,0.0239420166015625
5.0721619804687,0.0814028564453125,10.0221281494141,-0.028730419921875
