Frame number,6894
First frame,1
Point frequency,200
Analog frequency,1000

Time,Force.Fx1,Force.Fy1,Force.Fz1,Force.Fx2,Force.Fy2,Force.Fz2,accel.x,accel.y,accel.z,accel.x,accel.y,accel.z
s,N,N,N,N,N,N,mm/s�,mm/s�,mm/s�,mm/s�,mm/s�,mm/s�
0,-38.4752,141.176,-487.42,3.12548e-24,-5.77557e-24,1.6125e-23,-1.21102,7.93634,-1.90367,-14.2156,29.7716,-0.982228
0.001,-43.6236,141.372,-476.813,5.86211e-24,-9.79051e-24,3.46339e-23,-1.25685,8.11362,-2.04598,-14.229,29.4603,-0.994111
0.002,-49.2162,141.631,-463.704,9.40627e-24,-1.47434e-23,5.96442e-23,-1.32216,8.31203,-2.18962,-14.242,29.0816,-1.0204
0.003,-54.6478,141.884,-448.542,1.362e-23,-2.03006e-23,9.07758e-23,-1.40712,8.51557,-2.31613,-14.249,28.649,-1.06555
0.004,-59.2184,141.965,-431.999,1.81246e-23,-2.57564e-23,1.26099e-22,-1.50879,8.70556,-2.40798,-14.2398,28.1813,-1.13194
0.005,-62.3031,141.599,-414.807,2.22008e-23,-2.99046e-23,1.61386e-22,-1.62157,8.86401,-2.4531,-14.1993,27.7008,-1.21657
0.006,-63.4778,140.411,-397.565,2.46869e-23,-3.09183e-23,1.89295e-22,-1.73836,8.97685,-2.44758,-14.1086,27.2307,-1.3073
0.007,-62.5494,138.003,-380.615,2.38916e-23,-2.627e-23,1.98584e-22,-1.85216,9.03614,-2.39635,-13.9472,26.7945,-1.38139
0.008,-59.5169,134.109,-364.012,1.75541e-23,-1.27379e-23,1.73559e-22,-1.95733,9.04132,-2.31256,-13.6982,26.4138,-1.40897
0.009,-54.5273,128.728,-347.593,2.8913e-24,1.34397e-23,9.40444e-23,-2.05028,8.9992,-2.21629,-13.3527,26.1072,-1.36081
0.01,-47.8642,122.158,-331.115,-2.32109e-23,5.61828e-23,-6.37553e-23,-2.12934,8.92313,-2.13216,-12.9136,25.8897,-1.21623
0.011,-39.9507,114.91,-314.432,-6.37968e-23,1.18875e-22,-3.24992e-22,-2.194,8.83107,-2.08532,-12.3964,25.772,-0.966168
0.012,-31.3357,107.584,-297.603,-1.21158e-22,2.03262e-22,-7.11963e-22,-2.24392,8.74276,-2.09602,-11.8281,25.7608,-0.61012
0.013,-22.6669,100.77,-280.911,-1.958e-22,3.07887e-22,-1.23738e-21,-2.27804,8.67641,-2.17456,-11.2428,25.8595,-0.150634
0.014,-14.652,94.9767,-264.797,-2.85022e-22,4.26013e-22,-1.89463e-21,-2.29398,8.64578,-2.31839,-10.678,26.0688,0.408756
0.015,-7.97955,90.5865,-249.729,-3.811e-22,5.43126e-22,-2.64489e-21,-2.2879,8.65839,-2.51228,-10.1684,26.3859,1.05951
0.016,-3.17876,87.8052,-236.05,-4.69179e-22,6.34192e-22,-3.40134e-21,-2.2548,8.71484,-2.73103,-9.73998,26.803,1.78257
0.017,-0.477318,86.6349,-223.835,-5.25081e-22,6.61073e-22,-4.01171e-21,-2.18943,8.80935,-2.94392,-9.40495,27.3059,2.55005
0.018,0.218574,86.8756,-212.857,-5.13427e-22,5.70742e-22,-4.24141e-21,-2.08774,8.93112,-3.12022,-9.15962,27.8738,3.33711
0.019,-0.796758,88.1623,-202.692,-3.86691e-22,2.9528e-22,-3.7614e-21,-1.94868,9.0667,-3.23523,-8.98845,28.4815,4.13491
0.02,-3.16955,90.023,-192.883,-8.60746e-23,-2.45057e-22,-2.14654e-21,-1.77557,9.20258,-3.27625,-8.87138,29.1002,4.95311
0.021,-6.54274,91.9355,-183.074,4.5463e-22,-1.13404e-21,1.10725e-21,-1.57681,9.32787,-3.24663,-8.79135,29.7001,5.80921
0.022,-10.5331,93.3954,-173.046,1.30079e-21,-2.44506e-21,6.5369e-21,-1.36551,9.43619,-3.16561,-8.73932,30.2509,6.71315
0.023,-14.696,93.9934,-162.704,2.50276e-21,-4.21827e-21,1.4625e-20,-1.15851,9.52642,-3.06294,-8.7148,30.7248,7.65734
0.024,-18.5332,93.4536,-152.066,4.07433e-21,-6.42765e-21,2.56598e-20,-0.974248,9.60218,-2.97036,-8.72159,31.0976,8.61582
0.025,-21.5483,91.614,-141.264,5.96285e-21,-8.93751e-21,3.95315e-20,-0.83,9.67021,-2.91371,-8.76092,31.3517,9.55181
0.026,-23.3274,88.3997,-130.514,8.01103e-21,-1.14495e-20,5.54606e-20,-0.738875,9.73824,-2.90838,-8.82575,31.4768,10.4299
0.027,-23.6291,83.8367,-120.039,9.91217e-21,-1.34444e-20,7.16651e-20,-0.707579,9.81296,-2.95854,-8.89889,31.4696,11.2283
0.028,-22.4489,78.092,-110.003,1.11633e-20,-1.4126e-20,8.49885e-20,-0.735641,9.89853,-3.05899,-8.95533,31.3317,11.9461
0.029,-20.0094,71.4899,-100.46,1.10246e-20,-1.23824e-20,9.05378e-20,-0.816434,9.99565,-3.19856,-8.96735,31.0667,12.6018
0.03,-16.6683,64.4945,-91.3515,8.49709e-21,-6.78211e-21,8.14151e-20,-0.939591,10.1016,-3.36389,-8.91071,30.6768,13.2244
0.031,-12.8006,57.6645,-82.5565,2.3391e-21,4.36477e-21,4.86657e-20,-1.09402,10.2107,-3.54236,-8.77022,30.1609,13.8406
0.032,-8.73836,51.5662,-74.0178,-8.85639e-21,2.28472e-20,-1.83863e-20,-1.27068,10.3161,-3.72418,-8.54328,29.5147,14.4632
0.033,-4.79496,46.6469,-65.8471,-2.64919e-20,5.02555e-20,-1.31196e-19,-1.46461,10.4103,-3.90375,-8.24065,28.7322,15.0851
0.034,-1.31229,43.1108,-58.3168,-5.16716e-20,8.7505e-20,-3.00197e-19,-1.67576,10.4875,-4.07996,-7.88454,27.8088,15.6806
0.035,1.34775,40.8531,-51.7249,-8.4751e-20,1.34147e-19,-5.31887e-19,-1.909,10.5438,-4.25529,-7.50422,26.7444,16.2134
0.036,2.89118,39.4866,-46.2252,-1.24711e-19,1.87452e-19,-8.24565e-19,-2.17322,10.5777,-4.43402,-7.13023,25.5454,16.6466
0.037,3.21321,38.4532,-41.7141,-1.68352e-19,2.41294e-19,-1.16263e-18,-2.47987,10.5897,-4.6199,-6.78895,24.2261,16.9535
0.038,2.47247,37.1685,-37.8239,-2.09344e-19,2.84903e-19,-1.50952e-18,-2.84132,10.5816,-4.81371,-6.4989,22.8071,17.1248
0.039,1.06198,35.148,-34.0458,-2.37232e-19,3.01674e-19,-1.79984e-18,-3.2694,10.5561,-5.01186,-6.26873,21.3116,17.1716
0.04,-0.514878,32.0932,-29.9359,-2.36541e-19,2.68285e-19,-1.93157e-18,-3.77434,10.5161,-5.20728,-6.09651,19.7626,17.1212
0.041,-1.8088,27.9458,-25.2874,-1.86291e-19,1.5458e-19,-1.76014e-18,-4.36363,10.4643,-5.39275,-5.97052,18.1814,17.0095
0.042,-2.56416,22.9285,-20.2036,-6.02601e-20,-7.5239e-20,-1.09698e-18,-5.0411,10.4025,-5.5651,-5.87119,16.588,16.8725
0.043,-2.76582,17.5361,-15.0607,1.71438e-19,-4.59356e-19,2.83911e-19,-5.80602,10.3321,-5.72788,-5.77328,15.0038,16.7407
0.044,-2.56306,12.38,-10.3365,5.38874e-19,-1.03219e-18,2.62679e-18,-6.65225,10.2539,-5.89067,-5.64796,13.4548,16.6346
0.045,-2.1409,7.93943,-6.38798,1.0662e-18,-1.81446e-18,6.15701e-18,-7.56763,10.1687,-6.06555,-5.46504,11.9727,16.5591
0.046,-1.64293,4.43976,-3.35616,1.76228e-18,-2.7988e-18,1.10203e-17,-8.53425,10.0776,-6.26309,-5.19546,10.5939,16.4985
0.047,-1.16074,1.89829,-1.21286,2.60752e-18,-3.93045e-18,1.71937e-17,-9.52991,9.98211,-6.49,-4.81417,9.35361,16.4158
0.048,-0.745115,0.210744,0.164028,3.53692e-18,-5.08368e-18,2.43655e-17,-10.5304,9.88472,-6.74942,-4.30245,8.27768,16.2602
0.049,-0.417316,-0.784638,0.936117,4.41996e-18,-6.03528e-18,3.17867e-17,-11.5125,9.78932,-7.04267,-3.64935,7.3756,15.9801
0.05,-0.179093,-1.26339,1.26842,5.03927e-18,-6.43887e-18,3.81028e-17,-12.4563,9.70106,-7.37056,-2.85272,6.63862,15.5382
0.051,-0.0207735,-1.38801,1.30825,5.07144e-18,-5.80562e-18,4.11871e-17,-13.3473,9.62608,-7.73333,-1.92089,6.0452,14.9221
0.052,0.072729,-1.29418,1.17518,4.07576e-18,-3.50033e-18,3.80107e-17,-14.1779,9.57104,-8.12965,-0.874871,5.56965,14.151
0.053,0.117817,-1.08594,0.958556,1.49882e-18,1.23504e-18,2.4604e-17,-14.9476,9.54224,-8.55593,0.250894,5.18934,13.2751
0.054,0.129694,-0.836734,0.719725,-3.29399e-18,9.21506e-18,-3.81609e-18,-15.6621,9.54474,-9.00658,1.41172,4.888,12.3668
0.055,0.12106,-0.593695,0.496599,-1.0947e-17,2.11837e-17,-5.24551e-17,-16.3327,9.58161,-9.4753,2.55931,4.65518,11.5037
0.056,0.101662,-0.383176,0.309105,-2.19876e-17,3.76076e-17,-1.26175e-16,-16.9742,9.65336,-9.95724,3.64851,4.48243,10.7487
0.057,0.0783888,-0.216454,0.164453,-3.66308e-17,5.83749e-17,-2.28229e-16,-17.6031,9.75776,-10.451,4.64093,4.35861,10.1358
0.058,0.0556619,-0.0947896,0.0616776,-5.45035e-17,8.239e-17,-3.58403e-16,-18.2354,9.88992,-10.9595,5.50552,4.26779,9.66533
0.059,0.0359587,-0.0135375,-0.00476666,-7.42869e-17,1.07074e-16,-5.10491e-16,-18.8853,10.0427,-11.4897,6.21877,4.19186,9.30927
0.06,0.0203431,0.0347926,-0.0424006,-9.32913e-17,1.27803e-16,-6.69156e-16,-19.5632,10.208,-12.0507,6.76563,4.11727,9.02296
0.061,0.00893953,0.0584319,-0.058983,-1.07e-16,1.37355e-16,-8.0636e-16,-20.2743,10.3779,-12.6509,7.14042,4.04325,8.75748
0.062,0.0013172,0.0650567,-0.0614848,-1.08654e-16,1.25485e-16,-8.77783e-16,-21.0174,10.5452,-13.295,7.34671,3.98871,8.46846
0.063,-0.00322231,0.0611093,-0.0555927,-8.90011e-17,7.88191e-17,-8.19986e-16,-21.7841,10.7044,-13.9822,7.39662,3.99546,8.11945
0.064,-0.00544812,0.051554,-0.045577,-3.63629e-17,-1.86904e-17,-5.49425e-16,-22.5593,10.8513,-14.7061,7.31082,4.12589,7.68133
0.065,-0.00607831,0.0399136,-0.0343846,6.27299e-17,-1.84411e-16,3.50886e-17,-23.3219,10.9846,-15.4572,7.12047,4.45436,7.13129
0.066,-0.00571595,0.0284623,-0.0238499,2.22072e-16,-4.34404e-16,1.04444e-15,-24.0471,11.1059,-16.2259,6.87058,5.05228,6.45377
0.067,-0.00482612,0.0184849,-0.0149495,4.53162e-16,-7.79132e-16,2.58341e-15,-24.7089,11.2204,-17.0047,6.6228,5.96852,5.64375
0.068,-0.00373912,0.0105445,-0.00804986,7.61121e-16,-1.21714e-15,4.72439e-15,-25.2834,11.3363,-17.7891,6.45506,7.20997,4.71172
0.069,-0.00266835,0.004722,-0.00312315,1.13892e-15,-1.72657e-15,7.46848e-15,-25.7515,11.4638,-18.5763,6.45684,8.72997,3.68744
0.07,-0.00173458,0.00081137,8.18319e-05,1.55984e-15,-2.25458e-15,1.06925e-14,-26.1014,11.6135,-19.3634,6.71978,10.4319,2.61934
0.071,-0.000990897,-0.00153379,0.00191478,1.96848e-15,-2.70542e-15,1.40827e-14,-26.33,11.7942,-20.1456,7.32471,12.1888,1.56861
0.072,-0.000445177,-0.00269928,0.00274035,2.27103e-15,-2.92853e-15,1.7059e-14,-26.4434,12.0117,-20.9162,8.32709,13.8711,0.599979
0.073,-7.83387e-05,-0.00304755,0.00288829,2.32631e-15,-2.70931e-15,1.8698e-14,-26.4561,12.2678,-21.6674,9.74409,15.3727,-0.227994
0.074,0.000141915,-0.00288445,0.00262899,1.94006e-15,-1.7662e-15,1.76715e-14,-26.3894,12.5599,-22.3918,11.5462,16.6269,-0.871293
0.075,0.000251631,-0.00244678,0.00216647,8.65959e-16,2.4037e-16,1.22217e-14,-26.2689,12.8818,-23.0827,13.656,17.6121,-1.30601
0.076,0.000284712,-0.00190342,0.00164224,-1.18176e-15,3.68051e-15,2.08552e-16,-26.1223,13.2244,-23.7336,15.9547,18.3477,-1.5301
0.077,0.000269787,-0.00136408,0.00114504,-4.49826e-15,8.90065e-15,-2.07289e-14,-25.9776,13.5777,-24.3385,18.2942,18.8855,-1.56113
0.078,0.00022904,-0.000891348,0.000722659,-9.33379e-15,1.61342e-14,-5.28465e-14,-25.8605,13.9316,-24.892,20.5139,19.2956,-1.43128
0.079,0.000178306,-0.00051328,0.000393653,-1.58086e-14,2.53698e-14,-9.77493e-14,-25.7923,14.2783,-25.3914,22.4575,19.6513,-1.18068
0.08,0.000127878,-0.00023471,0.000157559,-2.3792e-14,3.61721e-14,-1.55578e-13,-25.7878,14.6134,-25.8383,23.9895,20.0144,-0.850667
0.081,8.36383e-05,-4.65596e-05,3.0357e-06,-3.27436e-14,4.74596e-14,-2.23897e-13,-25.8547,14.9367,-26.2378,25.0086,20.4255,-0.477653
0.082,4.8231e-05,6.71731e-05,-8.61659e-05,-4.15231e-14,5.72501e-14,-2.96293e-13,-25.9926,15.2523,-26.5974,25.4558,20.9002,-0.0885291
0.083,2.21233e-05,0.00012456,-0.000127175,-4.81826e-14,6.24068e-14,-3.6077e-13,-26.1949,15.569,-26.9229,25.3171,21.4311,0.302166
0.084,4.47481e-06,0.000142708,-0.000135588,-4.97739e-14,5.84347e-14,-3.98102e-13,-26.4493,15.8995,-27.2164,24.6209,21.9947,0.693021
0.085,-6.20622e-06,0.00013613,-0.000124257,-4.22203e-14,3.94089e-14,-3.8048e-13,-26.7402,16.2593,-27.476,23.431,22.5612,1.09437
0.086,-1.16084e-05,0.000116118,-0.00010293,-2.03273e-14,-1.85445e-15,-2.70931e-13,-27.0505,16.6662,-27.6972,21.8358,23.1037,1.52415
0.087,-1.33321e-05,9.07627e-05,-7.84035e-05,2.19657e-14,-7.32383e-14,-2.42147e-14,-27.364,17.1386,-27.8753,19.9368,23.6064,2.0006
0.088,-1.27361e-05,6.53497e-05,-5.497e-05,9.09702e-14,-1.82207e-13,4.09916e-13,-27.6667,17.6937,-28.0068,17.8361,24.0661,2.53377
0.089,-1.08785e-05,4.29225e-05,-3.497e-05,1.92124e-13,-3.33952e-13,1.07999e-12,-27.9484,18.3458,-28.0913,15.6251,24.4898,3.12065
0.09,-8.51788e-06,2.48717e-05,-1.93425e-05,3.28219e-13,-5.28627e-13,2.02147e-12,-28.2031,19.1049,-28.1316,13.3767,24.8906,3.74632
0.091,-6.1501e-06,1.14725e-05,-8.10779e-06,4.96864e-13,-7.57602e-13,3.2398e-12,-28.4294,19.9753,-28.1345,11.1424,25.2827,4.38918
0.092,-4.0606e-06,2.32791e-06,-7.53676e-07,6.87152e-13,-9.98753e-13,4.68698e-12,-28.6303,20.955,-28.1099,8.95334,25.6796,5.02607
0.093,-2.37931e-06,-3.29553e-06,3.48042e-06,8.75625e-13,-1.21107e-12,6.23211e-12,-28.8134,22.0342,-28.0698,6.82503,26.0923,5.63596
0.094,-1.13072e-06,-6.23223e-06,5.41228e-06,1.02186e-12,-1.32923e-12,7.6272e-12,-28.9893,23.1947,-28.0268,4.76203,26.5292,6.20267
0.095,-2.75122e-07,-7.26838e-06,5.80212e-06,1.0643e-12,-1.25909e-12,8.47203e-12,-29.1716,24.4096,-27.9922,2.76323,26.9947,6.71658
0.096,2.59968e-07,-7.05956e-06,5.29539e-06,9.17413e-13,-8.76006e-13,8.18461e-12,-29.3759,25.6435,-27.9763,0.826076,27.4897,7.17516
0.097,5.5782e-07,-6.09705e-06,4.40519e-06,4.71702e-13,-2.80682e-14,5.98751e-12,-29.6196,26.8541,-27.9868,-1.05038,28.012,7.58155
0.098,6.98204e-07,-4.70692e-06,3.51843e-06,-4.01328e-13,1.45255e-12,9.24539e-13,-29.9211,27.9939,-28.0291,-2.86392,28.5574,7.94195
0.099,7.49045e-07,-3.06978e-06,2.91309e-06,-1.83655e-12,3.72655e-12,-8.07309e-12,-30.2985,29.0126,-28.1055,-4.60888,29.1204,8.26293
0.1,7.62116e-07,-1.25292e-06,2.77665e-06,-3.95196e-12,6.90891e-12,-2.20484e-11,-30.768,29.8599,-28.2165,-6.27673,29.6947,8.54965
0.101,7.71134e-07,7.5003e-07,3.21881e-06,-6.81174e-12,1.10112e-11,-4.17833e-11,-31.3431,30.489,-28.3623,-7.85732,30.2736,8.80536
0.102,7.91026e-07,2.97413e-06,4.27343e-06,-1.03732e-11,1.5863e-11,-6.74432e-11,-32.0327,30.8606,-28.5428,-9.34041,30.8518,9.03125
0.103,8.17521e-07,5.43316e-06,5.88726e-06,-1.44165e-11,2.10121e-11,-9.80877e-11,-32.8392,30.9463,-28.7558,-10.7173,31.4254,9.22622
0.104,8.26708e-07,8.06446e-06,7.89445e-06,-1.84594e-11,2.56106e-11,-1.31047e-10,-33.7573,30.7322,-28.9959,-11.9819,31.9918,9.38702
0.105,7.74679e-07,1.06689e-05,9.97877e-06,-2.16633e-11,2.8298e-11,-1.61197e-10,-34.7746,30.221,-29.2545,-13.1312,32.5495,9.50961
0.106,5.97842e-07,1.28484e-05,1.16278e-05,-2.27436e-11,2.7104e-11,-1.80211e-10,-35.8722,29.4321,-29.522,-14.1646,33.0967,9.59154
0.107,2.14999e-07,1.39462e-05,1.20879e-05,-1.99063e-11,1.9407e-11,-1.75911e-10,-37.0265,28.4014,-29.7897,-15.0833,33.631,9.63442
0.108,-4.67285e-07,1.30013e-05,1.03326e-05,-1.08436e-11,1.99528e-12,-1.31954e-10,-38.2117,27.1785,-30.0514,-15.8889,34.1501,9.64522
0.109,-1.54406e-06,8.73335e-06,5.0638e-06,7.16766e-12,-2.87022e-11,-2.81389e-11,-39.401,25.8235,-30.305,-16.5818,34.6524,9.63596
0.11,-3.09394e-06,-4.18611e-07,-5.22831e-06,3.70079e-11,-7.61418e-11,1.5826e-10,-40.569,24.4019,-30.5521,-17.1608,35.1375,9.62193
0.111,-5.15152e-06,-1.6171e-05,-2.21169e-05,8.12341e-11,-1.42863e-10,4.49642e-10,-41.6917,22.9801,-30.7976,-17.6226,35.6056,9.61933
0.112,-7.66864e-06,-4.01481e-05,-4.69641e-05,1.41311e-10,-2.29286e-10,8.63196e-10,-42.7464,21.6192,-31.0492,-17.963,36.0572,9.64313
0.113,-1.04641e-05,-7.34731e-05,-8.04872e-05,2.16498e-10,-3.32052e-10,1.40348e-09,-43.7108,20.3698,-31.3151,-18.1782,36.4931,9.7051
0.114,-1.31636e-05,-0.000116161,-0.000122135,3.02374e-10,-4.41935e-10,2.05216e-09,-44.5627,19.2674,-31.6026,-18.267,36.9142,9.8123
0.115,-1.51354e-05,-0.000166294,-0.000169265,3.89036e-10,-5.4141e-10,2.75484e-09,-45.2801,18.3298,-31.9145,-18.2317,37.3217,9.96635
0.116,-1.54313e-05,-0.000218991,-0.00021615,4.59092e-10,-6.02155e-10,3.40574e-09,-45.8422,17.5572,-32.2476,-18.0788,37.716,10.1635
0.117,-1.27496e-05,-0.000265227,-0.000252877,4.85738e-10,-5.82942e-10,3.8316e-09,-46.2313,16.9343,-32.5909,-17.8187,38.0958,10.3952
0.118,-5.44385e-06,-0.000290645,-0.00026432,4.31359e-10,-4.28642e-10,3.77775e-09,-46.4344,16.434,-32.9279,-17.4644,38.4564,10.6485
0.119,8.39033e-06,-0.000274586,-0.000229408,2.47329e-10,-7.13863e-11,2.90071e-09,-46.4445,16.0204,-33.2391,-17.0299,38.7899,10.9075
0.12,3.07113e-05,-0.000189717,-0.000121111,-1.24038e-10,5.64784e-10,7.7379e-10,-46.2618,15.6533,-33.5058,-16.5293,39.0867,11.1555
0.121,6.3165e-05,-2.77089e-06,9.23637e-05,-7.44226e-10,1.55414e-09,-3.08597e-09,-45.8936,15.2918,-33.7125,-15.9747,39.3374,11.3777
0.122,0.000106513,0.000322952,0.000444507,-1.66858e-09,2.95264e-09,-9.15925e-09,-45.3538,14.8979,-33.8484,-15.3763,39.5356,11.5639
0.123,0.00015982,0.000822502,0.000964808,-2.93028e-09,4.77274e-09,-1.78231e-08,-44.6622,14.4401,-33.9076,-14.7423,39.6791,11.7093
0.124,0.000219396,0.0015208,0.00166969,-4.51709e-09,6.94869e-09,-2.91959e-08,-43.8422,13.8962,-33.8892,-14.0813,39.7697,11.8146
0.125,0.000277519,0.00241996,0.00254945,-6.3403e-09,9.29236e-09,-4.29223e-08,-42.9194,13.2552,-33.7973,-13.4035,39.8124,11.884
0.126,0.000321064,0.00348205,0.00355091,-8.19662e-09,1.14417e-08,-5.78956e-08,-41.9192,12.5181,-33.6408,-12.7214,39.8128,11.9241
0.127,0.000330224,0.00460724,0.00455641,-9.72557e-09,1.28075e-08,-7.19329e-08,-40.8648,11.6972,-33.4325,-12.0493,39.7756,11.9435
0.128,0.000277678,0.00560889,0.0053604,-1.03681e-08,1.2527e-08,-8.14311e-08,-39.7755,10.8142,-33.1871,-11.402,39.7039,11.9507
0.129,0.000128706,0.00618795,0.00564721,-9.33563e-09,9.44162e-09,-8.10652e-08,-38.6661,9.89789,-32.9204,-10.7939,39.5988,11.9527
0.13,-0.000157088,0.00591192,0.00497501,-5.604e-09,2.11735e-09,-6.36187e-08,-37.5463,8.98091,-32.6473,-10.2387,39.4603,11.9536
0.131,-0.000621588,0.0042059,0.00277422,2.0484e-09,-1.10607e-08,-2.0082e-08,-36.4215,8.09678,-32.3814,-9.74788,39.2876,11.9541
0.132,-0.00130059,0.000366494,-0.00162884,1.49333e-08,-3.16873e-08,5.98046e-08,-35.2942,7.27649,-32.1344,-9.33034,39.0806,11.9536
0.133,-0.00221186,-0.00638729,-0.00894922,3.42471e-08,-6.09918e-08,1.86348e-07,-34.1661,6.54552,-31.9148,-8.99055,38.84,11.9522
0.134,-0.00333814,-0.0168095,-0.0198256,6.07374e-08,-9.9313e-08,3.67801e-07,-33.04,5.92132,-31.7271,-8.72788,38.5679,11.9524
0.135,-0.00460486,-0.0314509,-0.0346316,9.42166e-08,-1.4537e-07,6.07128e-07,-31.9213,5.41172,-31.5714,-8.53659,38.2675,11.9569
0.136,-0.00585313,-0.0503945,-0.0532019,1.32909e-07,-1.95331e-07,8.97486e-07,-30.8187,5.01449,-31.4437,-8.40729,37.9432,11.9674
0.137,-0.00681049,-0.0728927,-0.0744685,1.72645e-07,-2.41723e-07,1.21639e-06,-29.7443,4.71827,-31.3374,-8.32947,37.6001,11.9821
0.138,-0.00706335,-0.0969078,-0.0960149,2.05956e-07,-2.72286e-07,1.51882e-06,-28.7131,4.50428,-31.2445,-8.29442,37.244,11.9954
0.139,-0.00603844,-0.118581,-0.11358,2.21186e-07,-2.6898e-07,1.72988e-06,-27.7414,4.34856,-31.1564,-8.29737,36.8806,11.9982
0.14,-0.00300367,-0.131688,-0.120578,2.01808e-07,-2.07454e-07,1.73825e-06,-26.8449,4.22436,-31.0649,-8.3385,36.5146,11.9801
0.141,0.00289749,-0.127177,-0.107745,1.26256e-07,-5.74236e-08,1.39235e-06,-26.0366,4.10459,-30.9617,-8.42233,36.1495,11.9311
0.142,0.0125604,-0.0929581,-0.0630831,-3.13307e-08,2.15428e-07,5.02017e-07,-25.3253,3.96421,-30.8394,-8.55591,35.7879,11.8438
0.143,0.0267623,-0.0141661,0.0276778,-2.98921e-07,6.45321e-07,-1.15062e-06,-24.7141,3.78269,-30.6911,-8.74621,35.4317,11.7131
0.144,0.0459138,0.125812,0.179797,-7.02348e-07,1.25921e-06,-3.78643e-06,-24.1992,3.54615,-30.511,-8.99733,35.0825,11.5352
0.145,0.0697026,0.343185,0.40709,-1.25838e-06,2.06581e-06,-7.58565e-06,-23.7697,3.24859,-30.2949,-9.30773,34.7424,11.3071
0.146,0.096624,0.650091,0.718,-1.96452e-06,3.04033e-06,-1.26205e-05,-23.4082,2.89225,-30.0413,-9.66833,34.4144,11.0267
0.147,0.123411,1.04908,1.10987,-2.78533e-06,4.10485e-06,-1.87606e-05,-23.0924,2.48711,-29.7516,-10.0627,34.102,10.6932
0.148,0.144411,1.52549,1.56129,-3.63537e-06,5.10512e-06,-2.55495e-05,-22.7968,2.04986,-29.4293,-10.4708,33.8081,10.3088
0.149,0.150989,2.03776,2.02268,-4.35996e-06,5.78626e-06,-3.20592e-05,-22.4946,1.60204,-29.0795,-10.8748,33.5339,9.88056
0.15,0.13112,2.50619,2.40573,-4.71613e-06,5.77107e-06,-3.67334e-05,-22.1604,1.16744,-28.7078,-11.263,33.2783,9.42302
0.151,0.0693721,2.80121,2.5731,-4.35763e-06,4.54793e-06,-3.72459e-05,-21.7715,0.769102,-28.3193,-11.6296,33.0391,8.95647
0.152,-0.0524092,2.73347,2.33062,-2.83049e-06,1.47747e-06,-3.04138e-05,-21.3104,0.426353,-27.9177,-11.9714,32.8125,8.50123
0.153,-0.253353,2.04881,1.4256,4.12576e-07,-4.16929e-06,-1.22241e-05,-20.7657,0.152479,-27.5056,-12.2854,32.594,8.07194
0.154,-0.550313,0.433153,-0.444107,5.96762e-06,-1.3126e-05,2.19476e-05,-20.1322,-0.0467866,-27.0843,-12.5675,32.378,7.6767
0.155,-0.952693,-2.46675,-3.60396,1.43919e-05,-2.59824e-05,7.68306e-05,-19.4109,-0.17387,-26.6553,-12.8121,32.158,7.31863
0.156,-1.45499,-6.99897,-8.35248,2.60597e-05,-4.29553e-05,0.000156355,-18.6073,-0.238898,-26.2192,-13.0129,31.9268,6.99675
0.157,-2.0269,-13.4304,-14.8795,4.09493e-05,-6.35684e-05,0.000262248,-17.7307,-0.258351,-25.7746,-13.163,31.6777,6.70717
0.158,-2.60132,-21.8315,-23.1462,5.83551e-05,-8.62385e-05,0.000392044,-16.7932,-0.253099,-25.3166,-13.2556,31.4052,6.44594
0.159,-3.06343,-31.9633,-32.8132,7.65276e-05,-0.000107785,0.000536499,-15.8089,-0.245792,-24.8348,-13.2847,31.105,6.21178
0.16,-3.24787,-43.2956,-43.4229,9.22656e-05,-0.00012291,0.000676495,-14.7942,-0.257551,-24.3124,-13.2455,30.7748,6.00649
0.161,-2.94934,-55.2155,-54.8377,0.000100506,-0.000123729,0.000779704,-13.7673,-0.304317,-23.7265,-13.1343,30.4138,5.83324
0.162,-1.95596,-67.3072,-67.6098,9.39958e-05,-9.9496e-05,0.00079753,-12.7474,-0.393385,-23.0495,-12.9487,30.0229,5.69456
0.163,-0.117076,-79.5312,-83.0389,6.3182e-05,-3.67163e-05,0.000663155,-11.7541,-0.520615,-22.2523,-12.6887,29.6051,5.59118
0.164,2.56115,-92.2065,-102.893,-3.51347e-06,8.00888e-05,0.000291923,-10.807,-0.668733,-21.3105,-12.3566,29.1654,5.52192
0.165,5.83832,-105.799,-128.904,-0.000118787,0.000266638,-0.000414288,-9.92455,-0.80704,-20.2122,-11.9586,28.7108,5.48409
0.166,9.2478,-120.638,-162.255,-0.000294647,0.000535806,-0.00155667,-9.12398,-0.89311,-18.9695,-11.5041,28.2494,5.47408
0.167,12.1985,-136.724,-203.311,-0.000539417,0.000892857,-0.0032208,-8.42103,-0.877284,-17.6333,-11.006,27.7906,5.48779
0.168,14.0843,-153.691,-251.673,-0.000853284,0.00132872,-0.0054473,-7.82961,-0.710385,-16.3039,-10.4808,27.344,5.52125
0.169,14.3304,-170.905,-306.492,-0.00122224,0.00181128,-0.00819021,-7.36274,-0.35395,-15.1316,-9.94747,26.9189,5.57126
0.17,12.3969,-187.625,-366.856,-0.00161052,0.00227498,-0.0112625,-7.0374,0.209704,-14.2992,-9.4267,26.5233,5.6357
0.171,7.78797,-203.172,-431.978,-0.00195186,0.00260974,-0.0142707,-6.8847,0.971179,-13.9852,-8.93935,26.163,5.71349
0.172,0.0904871,-217.03,-501.014,-0.00214081,0.0026508,-0.0165435,-6.96253,1.89305,-14.3051,-8.50511,25.8411,5.80427
0.173,-10.9418,-228.805,-572.59,-0.00202552,0.00217254,-0.0170659,-7.364,2.91303,-15.2426,-8.14099,25.5577,5.90774
0.174,-25.2987,-238.074,-644.379,-0.00140496,0.000890202,-0.0144357,-8.21639,3.95155,-16.6146,-7.85983,25.3112,6.02303
0.175,-42.6887,-244.27,-713.191,-3.43061e-05,-0.00152474,-0.00686755,-9.67185,4.92779,-18.11,-7.66932,25.098,6.14858
0.176,-62.5968,-246.71,-775.751,0.00235676,-0.00540882,0.00771963,-11.8973,5.78438,-19.3856,-7.57185,24.9145,6.28256
0.177,-84.356,-244.726,-829.854,0.00602678,-0.0110427,0.03149,-15.0695,6.5094,-20.156,-7.56488,24.7562,6.42322
0.178,-107.169,-237.788,-875.176,0.0111602,-0.0185517,0.0663034,-19.3731,7.14091,-20.2404,-7.64171,24.6188,6.56909
0.179,-130.072,-225.61,-913.239,0.0177744,-0.027765,0.113104,-24.9939,7.74987,-19.5883,-7.79248,24.498,6.71913
0.18,-151.868,-208.282,-946.604,0.0255926,-0.0380319,0.17105,-32.0993,8.40928,-18.3068,-8.0052,24.3898,6.87267
0.181,-171.056,-186.351,-977.852,0.0338835,-0.0480025,0.236365,-40.8028,9.16259,-16.6758,-8.26661,24.2909,7.02913
0.182,-185.808,-160.787,-1008.85,0.0412775,-0.05539,0.300951,-51.1229,10.0039,-15.1364,-8.56282,24.1986,7.18768
0.183,-194.062,-132.894,-1040.47,0.0455781,-0.0567529,0.350877,-62.9492,10.8787,-14.2511,-8.87987,24.1109,7.34718
0.184,-193.825,-104.266,-1072.64,0.0436068,-0.0473549,0.364952,-76.0244,11.7058,-14.6314,-9.20412,24.0266,7.50596
0.185,-183.571,-76.7549,-1104.54,0.0311355,-0.0211892,0.313754,-89.9372,12.4083,-16.8186,-9.52279,23.9446,7.66171
0.186,-162.609,-52.3366,-1134.88,0.00298811,0.028714,0.159646,-104.121,12.946,-21.1327,-9.82455,23.8639,7.81124
0.187,-131.264,-32.9182,-1162.26,-0.0465877,0.109555,-0.141497,-117.857,13.3414,-27.5459,-10.1003,23.7833,7.95012
0.188,-90.9148,-20.1681,-1185.56,-0.123153,0.227443,-0.635926,-130.296,13.6996,-35.6427,-10.3438,23.702,8.0725
0.189,-43.9306,-15.4062,-1204.28,-0.230784,0.385318,-1.36401,-140.52,14.2175,-44.6861,-10.5511,23.619,8.17179
0.19,6.49278,-19.4686,-1218.61,-0.370127,0.580005,-2.34749,-147.636,15.1714,-53.7456,-10.7195,23.5333,8.24194
0.191,56.6011,-32.5041,-1229.24,-0.535732,0.798347,-3.57126,-150.877,16.8662,-61.8226,-10.8469,23.444,8.27826
0.192,102.434,-53.7744,-1236.91,-0.712673,1.01255,-4.95917,-149.637,19.5537,-67.965,-10.9329,23.3495,8.27769
0.193,140.228,-81.5697,-1242.27,-0.872638,1.17515,-6.34478,-143.466,23.3628,-71.3991,-10.9781,23.2478,8.2393
0.194,166.847,-113.303,-1245.8,-0.969907,1.21427,-7.43904,-132.06,28.2885,-71.6592,-10.9845,23.1356,8.16517
0.195,180.203,-145.785,-1248.1,-0.944484,1.03355,-7.88271,-115.286,34.2418,-68.6524,-10.9543,23.0088,8.06152
0.196,179.577,-175.648,-1250.04,-0.740015,0.521506,-7.47277,-93.2531,41.125,-62.6371,-10.8893,22.863,7.93903
0.197,165.749,-199.851,-1252.73,-0.318159,-0.436547,-6.32011,-66.4442,48.8906,-54.1584,-10.7909,22.6938,7.81129
0.198,140.873,-216.165,-1257.21,0.348933,-1.9505,-4.69215,-35.8545,57.5608,-43.986,-10.6604,22.4977,7.69138
0.199,108.107,-223.53,-1264.13,1.28741,-4.10955,-2.78901,-3.09507,67.1918,-33.0675,-10.5007,22.2722,7.58844
0.2,71.1177,-222.233,-1273.36,2.51146,-6.94667,-0.698159,29.6164,77.7656,-22.4631,-10.3176,22.0165,7.50612
0.201,33.6014,-213.864,-1284.11,3.99989,-10.3849,1.55953,59.6622,89.0018,-13.2064,-10.1205,21.731,7.44355
0.202,-1.07198,-201.047,-1295.32,5.66616,-14.168,3.97841,84.4479,100.146,-6.08352,-9.9208,21.4176,7.39755
0.203,-30.0906,-187.003,-1306.27,7.32263,-17.7789,6.51225,101.93,109.881,-1.44272,-9.7295,21.0792,7.36444
0.204,-51.3759,-175.031,-1316.8,8.66159,-20.4309,8.99733,111.034,116.506,0.813055,-9.55478,20.7192,7.34078
0.205,-63.7198,-167.989,-1327.33,9.31696,-21.3035,11.0602,111.822,118.388,1.04639,-9.40005,20.3409,7.32339
0.206,-66.8445,-167.814,-1338.44,9.03562,-19.9446,12.147,105.375,114.45,-0.314534,-9.26361,19.9477,7.3089
0.207,-61.362,-175.188,-1350.48,7.84364,-16.4908,11.805,93.4812,104.477,-2.86228,-9.13966,19.5418,7.29348
0.208,-48.6634,-189.457,-1363.44,6.03896,-11.5629,10.0173,78.2335,89.1709,-6.20859,-9.02009,19.1246,7.27294
0.209,-30.7689,-208.818,-1377.03,4.02073,-5.98311,7.20571,61.65,69.9709,-9.98415,-8.89666,18.6967,7.24333
0.21,-10.11,-230.675,-1391.02,2.13613,-0.529915,3.9242,45.3902,48.7122,-13.8684,-8.76277,18.2576,7.20197
0.211,10.7671,-252.037,-1405.49,0.64432,4.1256,0.631829,30.6154,27.2641,-17.6125,-8.61425,17.806,7.14849
0.212,29.4999,-269.942,-1420.93,-0.2532,7.33528,-2.30918,17.9808,7.2523,-21.0254,-8.44914,17.34,7.08522
0.213,44.1148,-281.881,-1438.04,-0.404774,8.43614,-4.59404,7.71774,-10.1071,-23.938,-8.26695,16.858,7.01631
0.214,53.1321,-286.163,-1457.32,0.236582,6.9609,-6.05357,-0.245174,-24.0741,-26.1906,-8.06787,16.359,6.94596
0.215,55.5955,-282.146,-1478.86,1.57688,2.9764,-6.77869,-6.16397,-34.3713,-27.6621,-7.85261,15.843,6.87723
0.216,51.066,-270.311,-1502.19,3.42872,-2.87172,-7.07758,-10.3798,-41.1074,-28.3127,-7.62239,15.311,6.81192
0.217,39.6431,-252.215,-1526.51,5.55105,-9.62396,-7.27221,-13.2409,-44.6632,-28.1925,-7.37879,14.7651,6.75122
0.218,22.0356,-230.327,-1550.9,7.61925,-16.1649,-7.54552,-15.0468,-45.5699,-27.4046,-7.1232,14.2084,6.69618
0.219,-0.393193,-207.71,-1574.54,9.21561,-21.2091,-7.90381,-16.0202,-44.4019,-26.0659,-6.85627,13.6448,6.64786
0.22,-25.7166,-187.544,-1596.8,9.95055,-23.4454,-8.20896,-16.3196,-41.6967,-24.2988,-6.57769,13.0788,6.60745
0.221,-51.6949,-172.589,-1617.28,9.65837,-21.9382,-8.29003,-16.0777,-37.9044,-22.2475,-6.28642,12.5153,6.57625
0.222,-76.0941,-164.746,-1635.74,8.4672,-16.5116,-8.10271,-15.4372,-33.3725,-20.087,-5.9813,11.9585,6.55513
0.223,-96.9511,-164.803,-1652,6.66863,-7.84052,-7.80868,-14.5557,-28.3605,-18.0069,-5.66208,11.4122,6.54376
0.224,-112.709,-172.361,-1666.03,4.52538,2.80351,-7.69031,-13.5844,-23.0793,-16.1736,-5.33022,10.8786,6.54008
0.225,-122.253,-185.857,-1677.9,2.17556,13.8991,-7.97941,-12.6396,-17.7374,-14.693,-4.98936,10.3596,6.54065
0.226,-124.934,-202.739,-1687.95,-0.334007,23.8517,-8.73025,-11.7899,-12.572,-13.5907,-4.64532,9.85662,6.54116
0.227,-120.642,-219.86,-1696.7,-2.94613,31.1705,-9.76169,-11.0682,-7.84532,-12.8168,-4.30566,9.37098,6.53687
0.228,-109.858,-234.082,-1704.87,-5.51144,34.8111,-10.6779,-10.4993,-3.80694,-12.2673,-3.97868,8.90379,6.52322
0.229,-93.6646,-242.864,-1713.2,-7.76307,34.4222,-11.0139,-10.122,-0.640252,-11.8158,-3.67212,8.45537,6.49673
0.23,-73.7188,-244.626,-1722.31,-9.34325,30.3217,-10.4579,-9.99506,1.5809,-11.3461,-3.39206,8.02509,6.4557
0.231,-52.1766,-238.866,-1732.61,-9.94746,23.3388,-9.00409,-10.1833,2.90777,-10.7809,-3.14215,7.61145,6.40039
0.232,-31.454,-226.141,-1744.25,-9.54509,14.612,-6.9273,-10.734,3.50016,-10.0961,-2.92309,7.21209,6.33266
0.233,-13.8529,-207.952,-1757.04,-8.40426,5.3426,-4.61581,-11.6543,3.58729,-9.31777,-2.73266,6.82354,6.25521
0.234,-1.20791,-186.504,-1770.53,-6.85826,-3.3841,-2.4125,-12.8978,3.42159,-8.50425,-2.56635,6.44124,6.17069
0.235,5.28929,-164.326,-1784.05,-5.10211,-10.5797,-0.565854,-14.3655,3.23817,-7.72744,-2.41838,6.05972,6.08102
0.236,5.09151,-143.87,-1796.93,-3.18548,-15.2651,0.747318,-15.9198,3.22497,-7.05939,-2.28263,5.67299,5.987
0.237,-1.7412,-127.198,-1808.59,-1.13514,-16.6132,1.41355,-17.4086,3.50401,-6.56509,-2.15337,5.27461,5.88859
0.238,-14.5163,-115.768,-1818.66,0.934347,-14.3271,1.41377,-18.6918,4.12287,-6.29512,-2.02564,4.85762,5.78569
0.239,-31.8689,-110.249,-1826.97,2.85667,-8.86461,0.846333,-19.6654,5.05673,-6.27509,-1.89561,4.41467,5.67891
0.24,-51.8319,-110.396,-1833.56,4.50684,-1.24809,-0.101721,-20.2754,6.2212,-6.494,-1.7611,3.9386,5.56989
0.241,-72.0521,-115.083,-1838.68,5.77342,7.29989,-1.20742,-20.5204,7.4939,-6.89655,-1.62227,3.42305,5.46106
0.242,-90.0667,-122.536,-1842.71,6.46214,15.4994,-2.23338,-20.4418,8.74055,-7.38653,-1.48222,2.86299,5.3551
0.243,-103.586,-130.664,-1846.11,6.2824,21.9653,-2.93248,-20.1055,9.84021,-7.84552,-1.34743,2.25533,5.25438
0.244,-110.8,-137.386,-1849.37,4.98377,25.3323,-3.09803,-19.5826,10.7051,-8.1631,-1.22778,1.59971,5.16032
0.245,-110.685,-140.899,-1852.81,2.55079,24.6562,-2.64138,-18.9332,11.2922,-8.26656,-1.13575,0.898901,5.07347
0.246,-103.175,-139.922,-1856.55,-0.75787,19.8173,-1.61394,-18.1989,11.6057,-8.13718,-1.085,0.158656,4.99391
0.247,-89.1073,-133.885,-1860.46,-4.55447,11.6305,-0.165675,-17.4011,11.6906,-7.80672,-1.08847,-0.613094,4.92152
0.248,-70.0133,-123.001,-1864.17,-8.43347,1.56138,1.50279,-16.546,11.6199,-7.33884,-1.15635,-1.40685,4.85594
0.249,-47.8998,-108.199,-1867.22,-11.9213,-8.70277,3.16076,-15.6315,11.4789,-6.80677,-1.2936,-2.21184,4.7966
0.25,-25.1112,-90.9384,-1869.36,-14.407,-17.4818,4.5393,-14.6549,11.35,-6.27744,-1.49804,-3.0162,4.74274
0.251,-4.18254,-72.9777,-1870.67,-15.2712,-23.2511,5.32159,-13.6201,11.3011,-5.80568,-1.75948,-3.80754,4.69336
0.252,12.425,-56.1264,-1871.51,-14.1795,-24.9528,5.17485,-12.5431,11.3788,-5.43346,-2.0602,-4.57401,4.64744
0.253,22.7061,-41.954,-1872.28,-11.2516,-22.3298,3.85949,-11.4542,11.6068,-5.18765,-2.37632,-5.30537,4.60423
0.254,25.4721,-31.4862,-1873.25,-6.95385,-16.0096,1.37099,-10.3952,11.9872,-5.07634,-2.68003,-5.99368,4.56338
0.255,20.536,-25.0085,-1874.45,-1.8655,-7.20462,-2.03214,-9.41194,12.5035,-5.09025,-2.94269,-6.63341,4.52491
0.256,8.69403,-22.0759,-1875.83,3.46742,2.74652,-5.93268,-8.54615,13.1254,-5.20995,-3.13848,-7.22103,4.489
0.257,-8.41121,-21.6887,-1877.37,8.52136,12.5727,-9.81794,-7.82791,13.8152,-5.41197,-3.24779,-7.75466,4.45569
0.258,-28.514,-22.5261,-1879.13,12.7285,20.9992,-13.0784,-7.27102,14.5327,-5.66891,-3.25955,-8.23358,4.42463
0.259,-49.0622,-23.177,-1881.19,15.5261,26.7899,-15.119,-6.87044,15.2391,-5.94696,-3.17226,-8.65763,4.39497
0.26,-67.6054,-22.362,-1883.55,16.5318,29.0172,-15.5853,-6.60279,15.8974,-6.20794,-2.99349,-9.02662,4.3652
0.261,-82.0834,-19.1291,-1886.04,15.6531,27.328,-14.4958,-6.43129,16.4733,-6.41823,-2.73845,-9.33986,4.33315
0.262,-90.958,-12.9822,-1888.4,13.0666,22.039,-12.1921,-6.31485,16.9371,-6.55918,-2.42753,-9.59601,4.29634
0.263,-93.2915,-3.93708,-1890.27,9.18206,14.0371,-9.18548,-6.21805,17.2666,-6.63101,-2.08354,-9.79302,4.25276
0.264,-88.8734,7.48539,-1891.36,4.5697,4.49925,-5.98794,-6.11831,17.4503,-6.64865,-1.72867,-9.92846,4.20169
0.265,-78.3415,20.3388,-1891.51,-0.186461,-5.39179,-2.99714,-6.00882,17.489,-6.63508,-1.38187,-9.99994,4.14402
0.266,-63.152,33.4131,-1890.76,-4.56406,-14.4973,-0.479765,-5.89819,17.3951,-6.61606,-1.057,-10.0054,4.08187
0.267,-45.3364,45.4569,-1889.26,-8.08032,-21.627,1.38086,-5.80776,17.1907,-6.61592,-0.762408,-9.9437,4.01764
0.268,-27.1332,55.4226,-1887.21,-10.335,-25.6346,2.45287,-5.76669,16.9053,-6.65241,-0.501631,-9.81436,3.95309
0.269,-10.6413,62.6799,-1884.77,-11.1071,-25.768,2.67829,-5.80526,16.5746,-6.7325,-0.274739,-9.61804,3.88927
0.27,2.4234,67.1431,-1881.98,-10.3852,-21.9959,2.10404,-5.9477,16.2391,-6.85171,-0.0796189,-9.35641,3.82679
0.271,10.8791,69.2812,-1878.84,-8.36532,-15.0648,0.869155,-6.20637,15.9416,-6.99706,0.0867959,-9.0326,3.76613
0.272,14.1654,70.0101,-1875.23,-5.40553,-6.21987,-0.834275,-6.57864,15.7251,-7.15146,0.227337,-8.65153,3.7077
0.273,12.353,70.5023,-1871.1,-1.88657,3.19593,-2.78757,-7.04686,15.6272,-7.29756,0.343748,-8.2202,3.65183
0.274,6.07378,71.9598,-1866.41,1.88814,11.8992,-4.73933,-7.58108,15.6768,-7.42139,0.436372,-7.74774,3.59886
0.275,-3.58807,75.3945,-1861.23,5.64789,18.6266,-6.38651,-8.14408,15.8905,-7.51615,0.504115,-7.24508,3.54912
0.276,-15.2044,81.4496,-1855.65,9.05133,22.2993,-7.40613,-8.69767,16.2725,-7.58518,0.544531,-6.72417,3.50303
0.277,-27.1372,90.2882,-1849.75,11.6805,22.4099,-7.55176,-9.20852,16.8154,-7.64157,0.554256,-6.19683,3.461
0.278,-37.7509,101.556,-1843.45,13.2277,19.2423,-6.75831,-9.65185,17.5025,-7.70347,0.529785,-5.67382,3.42324
0.279,-45.682,114.426,-1836.54,13.7153,13.7434,-5.19695,-10.0121,18.3099,-7.78756,0.468164,-5.1644,3.38961
0.28,-50.063,127.735,-1828.64,13.4446,7.17618,-3.2221,-10.2812,19.2087,-7.9039,0.367339,-4.67609,3.35951
0.281,-50.6028,140.198,-1819.41,12.6904,0.789936,-1.23295,-10.4563,20.1672,-8.05348,0.226348,-4.21445,3.3318
0.282,-47.5213,150.661,-1808.65,11.5106,-4.35298,0.43177,-10.538,21.1539,-8.22802,0.0456224,-3.78285,3.30484
0.283,-41.4114,158.315,-1796.43,9.87026,-7.55934,1.55422,-10.5293,22.1409,-8.41151,-0.17249,-3.38253,3.27706
0.284,-33.1027,162.824,-1783.01,7.86574,-8.73338,2.09301,-10.4367,23.1058,-8.58371,-0.423262,-3.01287,3.24759
0.285,-23.544,164.383,-1768.76,5.74225,-8.31144,2.16343,-10.2716,24.033,-8.7246,-0.699622,-2.67161,3.21628
0.286,-13.6942,163.691,-1754.02,3.73537,-6.88699,1.93252,-10.0521,24.9122,-8.81851,-0.992792,-2.35505,3.18327
0.287,-4.45189,161.828,-1739.03,1.97176,-4.93235,1.53787,-9.80388,25.737,-8.85686,-1.29313,-2.05846,3.14875
0.288,3.3894,160.015,-1723.96,0.482706,-2.7561,1.0713,-9.5593,26.5024,-8.83863,-1.59076,-1.77669,3.113
0.289,9.22313,159.373,-1708.93,-0.752632,-0.547658,0.587512,-9.35325,27.2031,-8.76851,-1.87574,-1.50475,3.07632
0.29,12.7361,160.748,-1694.04,-1.77017,1.57134,0.114918,-9.21718,27.8328,-8.6551,-2.13832,-1.23824,3.03876
0.291,13.9599,164.632,-1679.39,-2.5899,3.49389,-0.33272,-9.17283,28.3837,-8.51133,-2.36942,-0.973507,2.99991
0.292,13.2247,171.138,-1665.03,-3.1905,5.07656,-0.744797,-9.22787,28.8479,-8.35501,-2.56114,-0.707771,2.95895
0.293,11.0458,179.999,-1650.91,-3.48934,6.09374,-1.10292,-9.37389,29.2188,-8.20514,-2.70706,-0.439118,2.91495
0.294,7.99949,190.575,-1636.9,-3.3651,6.27392,-1.38352,-9.58669,29.4924,-8.0753,-2.80237,-0.1665,2.86718
0.295,4.62301,201.94,-1622.74,-2.76128,5.49565,-1.58709,-9.82896,29.6681,-7.96908,-2.84408,0.110381,2.81534
0.296,1.36405,213.038,-1608.16,-1.76297,3.9298,-1.75631,-10.0553,29.7485,-7.88098,-2.83139,0.391251,2.75986
0.297,-1.40525,222.873,-1592.93,-0.537698,1.91151,-1.94545,-10.2192,29.7402,-7.80158,-2.76581,0.675422,2.70204
0.298,-3.3487,230.651,-1576.93,0.751281,-0.243057,-2.17763,-10.2801,29.6538,-7.72214,-2.65089,0.961928,2.64383
0.299,-4.15453,235.866,-1560.1,1.95324,-2.2633,-2.4274,-10.2088,29.5042,-7.63348,-2.492,1.2495,2.58741
0.3,-3.56999,238.367,-1542.4,2.89993,-3.87428,-2.6152,-9.98936,29.3101,-7.52214,-2.29589,1.5364,2.53473
0.301,-1.47765,238.386,-1523.83,3.41981,-4.81173,-2.63082,-9.61871,29.0931,-7.37261,-2.07014,1.82041,2.48722
0.302,2.03516,236.492,-1504.36,3.44214,-4.97013,-2.4157,-9.10671,28.8765,-7.1769,-1.82235,2.09907,2.44549
0.303,6.68915,233.479,-1484.01,3.06862,-4.50404,-2.02042,-8.47594,28.6851,-6.94072,-1.55968,2.37007,2.40929
0.304,12.1072,230.24,-1462.88,2.488,-3.69906,-1.55227,-7.76012,28.5431,-6.67952,-1.28858,2.63142,2.37769
0.305,17.913,227.652,-1441.21,1.85754,-2.79522,-1.09804,-6.99965,28.4721,-6.40974,-1.01477,2.88137,2.34913
0.306,23.7719,226.449,-1419.33,1.27359,-1.94229,-0.705964,-6.23534,28.4871,-6.14452,-0.743375,3.11835,2.32141
0.307,29.3711,227.098,-1397.52,0.785992,-1.22033,-0.396372,-5.50299,28.5938,-5.89433,-0.479039,3.34099,2.29188
0.308,34.376,229.715,-1376.02,0.411935,-0.659746,-0.171114,-4.82982,28.7878,-5.66599,-0.226026,3.5484,2.25808
0.309,38.4029,234.088,-1354.95,0.147756,-0.258778,-0.0212014,-4.23221,29.056,-5.45819,0.0117744,3.74045,2.21858
0.31,41.0411,239.758,-1334.31,-0.0217481,0.00261249,0.0675193,-3.71418,29.3785,-5.2611,0.231047,3.91772,2.1732
0.311,41.947,246.111,-1313.89,-0.116602,0.152588,0.11048,-3.26742,29.7323,-5.064,0.429237,4.08112,2.12262
0.312,40.9829,252.48,-1293.37,-0.157217,0.220624,0.122011,-2.8743,30.0944,-4.86221,0.604543,4.23154,2.06804
0.313,38.3066,258.25,-1272.36,-0.16179,0.233437,0.114098,-2.51298,30.4457,-4.65661,0.755735,4.36983,2.01081
0.314,34.3393,262.923,-1250.53,-0.14508,0.212973,0.0959504,-2.16292,30.7724,-4.45045,0.881914,4.49694,1.95234
0.315,29.6379,266.114,-1227.69,-0.118105,0.175815,0.0740847,-1.80891,31.0671,-4.24838,0.982343,4.61401,1.89392
0.316,24.7776,267.541,-1203.84,-0.0884269,0.13349,0.0526901,-1.44344,31.3271,-4.05526,1.05639,4.72249,1.83669
0.317,20.3189,267.094,-1179.07,-0.060718,0.0932394,0.0341188,-1.06725,31.5546,-3.87263,1.10355,4.82407,1.78164
0.318,16.829,264.912,-1153.56,-0.0374419,0.058981,0.0193853,-0.687781,31.7553,-3.69591,1.12357,4.92053,1.72976
0.319,14.8705,261.392,-1127.48,-0.0195055,0.032252,0.00861316,-0.315352,31.9376,-3.51565,1.11689,5.01356,1.68196
0.32,14.9408,257.123,-1100.92,-0.00682438,0.013039,0.00139763,0.0413679,32.1106,-3.32122,1.08503,5.10484,1.6386
0.321,17.3894,252.783,-1073.94,0.0012333,0.000437803,-0.00292287,0.37858,32.2831,-3.10491,1.03093,5.19622,1.59904
0.322,22.3289,249.011,-1046.65,0.00552517,-0.0068595,-0.00508028,0.698387,32.4624,-2.8652,0.958761,5.28976,1.56169
0.323,29.5451,246.274,-1019.3,0.00692496,-0.0102374,-0.00576102,1.00813,32.6545,-2.60822,0.873385,5.38766,1.52444
0.324,38.456,244.751,-992.258,0.00620552,-0.0109592,-0.00554417,1.31904,32.8633,-2.34661,0.779731,5.49217,1.48536
0.325,48.1906,244.333,-965.87,0.00399471,-0.0100678,-0.00487746,1.6446,33.0898,-2.09618,0.682345,5.60547,1.44305
0.326,57.7663,244.693,-940.271,0.000785399,-0.00835543,-0.00407711,1.9987,33.331,-1.87115,0.585035,5.72945,1.39688
0.327,66.2565,245.389,-915.321,-0.00301597,-0.00637524,-0.00334044,2.3939,33.5801,-1.67989,0.490427,5.86561,1.34694
0.328,72.877,245.925,-890.705,-0.00701504,-0.00447725,-0.00276314,2.84004,33.8259,-1.52351,0.399772,6.01488,1.29388
0.329,77.002,245.812,-866.125,-0.0107405,-0.00285284,-0.00235637,3.34327,34.0546,-1.3978,0.313235,6.17751,1.23845
0.33,78.1605,244.625,-841.467,-0.0135508,-0.0015793,-0.00206086,3.90515,34.2506,-1.2959,0.230494,6.353,1.18119
0.331,76.0727,242.071,-816.841,-0.0145505,-0.000659068,-0.00175771,4.52207,34.3993,-1.20891,0.151301,6.54012,1.12228
0.332,70.7406,238.028,-792.505,-0.0125311,-5.11592e-05,-0.00127716,5.185,34.4888,-1.12482,0.0758038,6.73713,1.06171
0.333,62.538,232.59,-768.707,-0.00596215,0.000305564,-0.000408189,5.87968,34.5123,-1.02882,0.00461841,6.9422,0.999419
0.334,52.2153,226.074,-745.538,0.00694075,0.00047661,0.001087,6.58728,34.4682,-0.906448,-0.0612094,7.1536,0.935408
0.335,40.7939,218.964,-722.86,0.0280309,0.000522226,0.00344855,7.28593,34.3597,-0.747603,-0.120116,7.36957,0.869997
0.336,29.4045,211.797,-700.388,0.0588889,0.000492429,0.00687902,7.95341,34.1937,-0.548656,-0.16987,7.58833,0.804056
0.337,19.1348,205.056,-677.832,0.100282,0.000425255,0.0114825,8.57039,33.9801,-0.311803,-0.207733,7.80823,0.738961
0.338,10.9047,199.092,-655.009,0.151389,0.000347029,0.0171785,9.12372,33.7302,-0.0426774,-0.231094,8.02783,0.676065
0.339,5.36896,194.113,-631.889,0.208794,0.000273697,0.0235892,9.60852,33.4565,0.251886,-0.238184,8.24572,0.616013
0.34,2.87135,190.202,-608.59,0.265256,0.000212566,0.0299031,10.0287,33.1713,0.564759,-0.228473,8.4605,0.55841
0.341,3.46617,187.349,-585.321,0.308385,0.000164028,0.0347269,10.3955,32.8856,0.887981,-0.202706,8.67091,0.501884
0.342,6.97151,185.471,-562.298,0.319398,0.000123059,0.0359462,10.725,32.6086,1.2114,-0.162738,8.87618,0.444372
0.343,12.9834,184.391,-539.677,0.272286,8.04907e-05,0.0306327,11.0336,32.3474,1.52139,-0.111343,9.07605,0.383446
0.344,20.8303,183.799,-517.556,0.13386,2.41294e-05,0.0150502,11.3343,32.1079,1.80067,-0.0519197,9.27063,0.316686
0.345,29.5562,183.233,-496.031,-0.134671,-6.00371e-05,-0.0151679,11.6336,31.8948,2.0314,0.0119968,9.46026,0.24201
0.346,38.0506,182.136,-475.247,-0.5738,-0.000186274,-0.0645795,11.9291,31.7117,2.20236,0.0772363,9.6456,0.157811
0.347,45.2932,179.977,-455.359,-1.21858,-0.000366842,-0.13713,12.2099,31.5591,2.31537,0.141215,9.82784,0.0628145
0.348,50.551,176.394,-436.43,-2.08734,-0.000608724,-0.234883,12.4576,31.4331,2.38408,0.20204,10.0089,-0.0439212
0.349,53.4265,171.299,-418.38,-3.1655,-0.000909078,-0.356198,12.6487,31.3243,2.42548,0.258896,10.1909,-0.162396
0.35,53.7987,164.899,-401.033,-4.38431,-0.00124929,-0.493339,12.7565,31.219,2.45202,0.312603,10.3758,-0.290723
0.351,51.7583,157.636,-384.19,-5.59499,-0.00158777,-0.629567,12.7535,31.1001,2.47093,0.365886,10.5639,-0.424482
0.352,47.5723,150.089,-367.663,-6.54049,-0.00185207,-0.735957,12.6151,30.9498,2.48888,0.423049,10.7541,-0.55682
0.353,41.6603,142.87,-351.292,-6.90715,-0.00195358,-0.777213,12.324,30.7506,2.51608,0.489124,10.9436,-0.6793
0.354,34.5649,136.547,-334.982,-6.5405,-0.00184855,-0.735955,11.8742,30.487,2.5668,0.56877,11.1287,-0.783481
0.355,26.9161,131.577,-318.714,-5.595,-0.00158052,-0.629564,11.2761,30.1465,2.65878,0.665153,11.3057,-0.86369
0.356,19.394,128.226,-302.514,-4.38431,-0.00123798,-0.493335,10.5577,29.721,2.81127,0.778919,11.472,-0.920513
0.357,12.6768,126.497,-286.431,-3.16551,-0.000893433,-0.356192,9.76445,29.2081,3.03821,0.907498,11.6275,-0.962588
0.358,7.33798,126.112,-270.55,-2.08735,-0.000588818,-0.234874,8.95433,28.6126,3.33771,1.04485,11.7746,-1.00481
0.359,3.7028,126.568,-255.027,-1.2186,-0.000343477,-0.13712,8.18986,27.9489,3.68947,1.18155,11.9186,-1.06445
0.36,1.77595,127.249,-240.056,-0.573817,-0.000161466,-0.0645673,7.53007,27.2408,4.06683,1.30539,12.0661,-1.15783
0.361,1.32125,127.561,-225.779,-0.134688,-3.75686e-05,-0.0151552,7.02377,26.5195,4.45413,1.40233,12.2241,-1.29849
0.362,2.00632,127.005,-212.212,0.133849,3.81457e-05,0.0150612,6.70569,25.8179,4.85498,1.45811,12.3984,-1.49547
0.363,3.48366,125.216,-199.248,0.272286,7.71299e-05,0.0306385,6.59472,25.1661,5.28875,1.46062,12.5923,-1.75046
0.364,5.38889,121.991,-186.749,0.319417,9.0348e-05,0.0359418,6.69378,24.5882,5.78157,1.4029,12.8053,-2.05469
0.365,7.32359,117.303,-174.646,0.308433,8.7176e-05,0.0347058,6.99112,24.1002,6.35686,1.28597,13.0338,-2.38823
0.366,8.87556,111.287,-162.979,0.265345,7.49587e-05,0.0298573,7.46297,23.7101,7.02703,1.12029,13.2718,-2.72388
0.367,9.66929,104.198,-151.85,0.208935,5.89972e-05,0.02351,8.07656,23.4191,7.7878,0.925269,13.5123,-3.0345
0.368,9.42409,96.4067,-141.355,0.151592,4.27861e-05,0.0170576,8.7931,23.2233,8.6169,0.72713,13.7495,-3.30015
0.369,8.01583,88.4114,-131.527,0.100549,2.83641e-05,0.011314,9.57023,23.1147,9.47713,0.555759,13.9806,-3.51187
0.37,5.53022,80.8077,-122.328,0.0592139,1.66902e-05,0.00666289,10.3643,23.0819,10.3233,0.441053,14.2069,-3.67182
0.371,2.27633,74.1874,-113.676,0.0283883,7.98807e-06,0.00319432,11.1321,23.109,11.1121,0.409257,14.4338,-3.7909
0.372,-1.27913,69.019,-105.517,0.00728057,2.03212e-06,0.000819222,11.8334,23.1752,11.8119,0.47975,14.6692,-3.88513
0.373,-4.65826,65.542,-97.8579,-0.0057234,-1.63475e-06,-0.000644018,12.4327,23.254,12.4104,0.662825,14.9212,-3.97151
0.374,-7.5003,63.7103,-90.7358,-0.0125177,-3.5482e-06,-0.00140853,12.9,23.3153,12.9151,0.958906,15.1958,-4.06406
0.375,-9.56884,63.2092,-84.1373,-0.0149316,-4.2251e-06,-0.00168015,13.2102,23.3272,13.3491,1.35933,15.4943,-4.17094
0.376,-10.6857,63.5345,-77.9554,-0.0145393,-4.1099e-06,-0.001636,13.343,23.2596,13.743,1.84843,15.8131,-4.29367
0.377,-10.708,64.097,-72.0249,-0.0125803,-3.55239e-06,-0.00141557,13.2833,23.0867,14.1242,2.40652,16.143,-4.42868
0.378,-9.56938,64.3027,-66.2088,-0.00995407,-2.8062e-06,-0.00112006,13.021,22.7892,14.5086,3.0134,16.4711,-4.57027
0.379,-7.32795,63.5962,-60.4591,-0.00725734,-2.0395e-06,-0.000816624,12.5525,22.3552,14.8934,3.65182,16.7819,-4.71321
0.38,-4.20061,61.5066,-54.7844,-0.00484158,-1.35129e-06,-0.000544803,11.881,21.7807,15.2572,4.30974,17.06,-4.85431
0.381,-0.59118,57.7268,-49.1458,-0.0028754,-7.89217e-07,-0.00032357,11.0183,21.0691,15.5636,4.98117,17.2914,-4.9932
0.382,2.92973,52.1975,-43.405,-0.00140211,-3.65937e-07,-0.000157799,9.98627,20.2322,15.7701,5.66522,17.4651,-5.13214
0.383,5.75751,45.1464,-37.3881,-0.000387863,-7.28864e-08,-4.36809e-05,8.8159,19.2897,15.8367,6.36413,17.5742,-5.27525
0.384,7.45931,37.0573,-31.0086,0.000241528,1.09157e-07,2.7135e-05,7.54565,18.2688,15.7329,7.08072,17.6162,-5.4276
0.385,7.92357,28.5957,-24.3894,0.000574604,2.02588e-07,6.46139e-05,6.21775,17.2024,15.4425,7.81619,17.5931,-5.59477
0.386,7.36583,20.505,-17.9147,0.000697593,2.282e-07,7.84624e-05,4.87448,16.1259,14.9692,8.56849,17.5102,-5.78264
0.387,6.1852,13.4354,-12.0925,0.000685117,2.02615e-07,7.70818e-05,3.55454,15.0743,14.3381,9.33159,17.3756,-5.99654
0.388,4.76897,7.76885,-7.30337,0.000596223,1.37446e-07,6.71217e-05,2.29001,14.0802,13.5946,10.0958,17.1988,-6.23953
0.389,3.38612,3.58462,-3.67908,0.000473966,3.97873e-08,5.34321e-05,1.10469,13.1726,12.7952,10.8493,16.9901,-6.51069
0.39,2.18734,0.751522,-1.15665,0.000347072,-8.62646e-08,3.92497e-05,0.0132154,12.3769,11.9973,11.5798,16.7601,-6.8047
0.391,1.23731,-0.966973,0.431522,0.000232608,-2.37245e-07,2.64962e-05,-0.979813,11.7154,11.2499,12.2765,16.5184,-7.11354
0.392,0.543577,-1.83974,1.2932,0.000138904,-4.0725e-07,1.61053e-05,-1.8803,11.2067,10.5925,12.9309,16.2744,-7.4297
0.393,0.0799035,-2.12219,1.63444,6.82854e-05,-5.84273e-07,8.32639e-06,-2.7044,10.862,10.0543,13.5373,16.0363,-7.74922
0.394,-0.196213,-2.03157,1.63577,1.93562e-05,-7.46152e-07,2.97845e-06,-3.47702,10.6803,9.65115,14.0922,15.8124,-8.07327
0.395,-0.331572,-1.73725,1.44151,-1.12354e-05,-8.5647e-07,-3.5548e-07,-4.22844,10.6434,9.37302,14.5946,15.6105,-8.40772
0.396,-0.369866,-1.36091,1.15795,-2.75463e-05,-8.60997e-07,-2.1909e-06,-4.98869,10.7141,9.17037,15.0461,15.438,-8.7609
0.397,-0.347786,-0.982278,0.856867,-3.35324e-05,-6.85637e-07,-3.05302e-06,-5.77948,10.8386,8.95271,15.4505,15.3005,-9.14004
0.398,-0.293626,-0.64747,0.581597,-3.25959e-05,-2.37232e-07,-3.42494e-06,-6.60476,10.9521,8.60852,15.8136,15.2013,-9.54784
0.399,-0.227479,-0.377777,0.353989,-2.7396e-05,5.90952e-07,-3.72031e-06,-7.44387,10.9874,8.03947,16.1419,15.1404,-9.98133
0.4,-0.162326,-0.177677,0.180921,-1.98382e-05,1.90682e-06,-4.26909e-06,-8.25164,10.8851,7.19356,16.443,15.1143,-10.4333
0.401,-0.105514,-0.0414449,0.0598452,-1.11802e-05,3.79764e-06,-5.3061e-06,-8.96542,10.6022,6.08553,16.7242,15.1162,-10.895
0.402,-0.0602691,0.041823,-0.0169026,-2.20267e-06,6.29643e-06,-6.95458e-06,-9.51598,10.1158,4.79638,16.9931,15.1366,-11.3591
0.403,-0.0270701,0.0847116,-0.0590136,6.58608e-06,9.33479e-06,-9.19904e-06,-9.83905,9.42355,3.45084,17.2574,15.1653,-11.8208
0.404,-0.00475491,0.0992707,-0.0761895,1.47346e-05,1.2682e-05,-1.18447e-05,-9.88461,8.54067,2.18271,17.525,15.1924,-12.2786
0.405,0.00864216,0.095806,-0.0769811,2.16365e-05,1.58727e-05,-1.44643e-05,-9.62257,7.49776,1.10409,17.8032,15.2101,-12.7334
0.406,0.0153145,0.0823914,-0.0682582,2.63365e-05,1.81301e-05,-1.63382e-05,-9.04485,6.33977,0.287265,18.0977,15.2129,-13.1885
0.407,0.0173248,0.0648556,-0.0551048,2.73717e-05,1.82961e-05,-1.63983e-05,-8.16537,5.1274,-0.240126,18.4114,15.1986,-13.6477
0.408,0.0164152,0.0470409,-0.0409724,2.26733e-05,1.47908e-05,-1.3195e-05,-7.0189,3.93963,-0.489244,18.7445,15.1682,-14.1154
0.409,0.013935,0.0311899,-0.027962,9.56657e-06,5.62685e-06,-4.9136e-06,-5.65931,2.8752,-0.498727,19.095,15.1259,-14.5959
0.41,0.0108477,0.0183577,-0.0171479,-1.50796e-05,-1.14786e-05,1.0524e-05,-4.15689,2.05067,-0.323522,19.4588,15.0794,-15.0936
0.411,0.00777928,0.00879114,-0.00888583,-5.44904e-05,-3.88493e-05,3.5229e-05,-2.59444,1.59238,-0.0263091,19.8307,15.0395,-15.6117
0.412,0.00508762,0.0022427,-0.00307613,-0.000111336,-7.83985e-05,7.09378e-05,-1.06336,1.62042,0.328627,20.2038,15.0196,-16.152
0.413,0.00293347,-0.00178971,0.000630913,-0.000186722,-0.000130928,0.00011838,0.339348,2.22594,0.679386,20.57,15.0347,-16.7148
0.414,0.0013452,-0.00389477,0.00268707,-0.000278776,-0.000195142,0.000176385,1.51373,3.44702,0.969481,20.9201,15.1,-17.2995
0.415,0.000271638,-0.00464072,0.00354889,-0.000380799,-0.000266362,0.000240728,2.36147,5.25051,1.15143,21.2442,15.2286,-17.904
0.416,-0.000377994,-0.00451632,0.00362127,-0.000479079,-0.000334998,0.000302742,2.79294,7.52657,1.19091,21.5323,15.4301,-18.525
0.417,-0.000706434,-0.00390634,0.00323113,-0.000550536,-0.000384909,0.000347838,2.73574,10.0992,1.06959,21.7758,15.7085,-19.1576
0.418,-0.000811046,-0.00308991,0.00262157,-0.000560575,-0.000391901,0.000354152,2.14317,12.7526,0.785177,21.9682,16.0612,-19.7955
0.419,-0.000774495,-0.00225213,0.00195851,-0.000461752,-0.000322795,0.0002917,1.00128,15.2673,0.348428,22.108,16.4794,-20.4312
0.42,-0.00066114,-0.00150197,0.00134373,-0.000194107,-0.000135665,0.000122591,-0.666445,17.4569,-0.220714,22.1986,16.9485,-21.0572
0.421,-0.000517141,-0.000891644,0.000829991,0.000311647,0.00021794,-0.000196958,-2.79788,19.195,-0.896241,22.2495,17.4502,-21.667
0.422,-0.000372691,-0.000434492,0.000435584,0.00112665,0.000787763,-0.000711902,-5.2957,20.4271,-1.64783,22.2753,17.9644,-22.2559
0.423,-0.000245203,-0.000119925,0.000156802,0.00231053,0.00161549,-0.00145991,-8.03579,21.1677,-2.44151,22.2946,18.4717,-22.8224
0.424,-0.000142668,7.51522e-05,-2.22583e-05,0.00389048,0.00272014,-0.00245817,-10.8785,21.4876,-3.23975,22.3272,18.9552,-23.3671
0.425,-6.67042e-05,0.000178278,-0.000122611,0.00583167,0.00407737,-0.00368469,-13.6805,21.495,-4.00165,22.3916,19.4016,-23.8919
0.426,-1.50749e-05,0.00021627,-0.000165693,0.00799865,0.00559246,-0.00505387,-16.3062,21.3139,-4.68418,22.5025,19.803,-24.3991
0.427,1.64061e-05,0.00021234,-0.000170615,0.010109,0.00706794,-0.00638725,-18.6368,21.0645,-5.24471,22.6699,20.1577,-24.8899
0.428,3.25474e-05,0.000184876,-0.000152867,0.0116832,0.00816856,-0.00738187,-20.5772,20.8452,-5.64398,22.8984,20.471,-25.3635
0.429,3.79411e-05,0.000147302,-0.000123998,0.0119984,0.00838898,-0.00758106,-22.0594,20.723,-5.8491,23.1886,20.7544,-25.8167
0.43,3.65079e-05,0.000108601,-9.19159e-05,0.0100587,0.00703276,-0.00635545,-23.0444,20.7306,-5.83583,23.5398,21.024,-26.2445
0.431,3.13146e-05,7.41259e-05,-6.15033e-05,0.00459908,0.00321556,-0.00290588,-23.5222,20.8703,-5.59015,23.952,21.2985,-26.6404
0.432,2.4572e-05,4.64916e-05,-3.53494e-05,-0.00585034,-0.00409041,0.00369647,-23.5096,21.1223,-5.10939,24.428,21.5966,-26.9991
0.433,1.77358e-05,2.63973e-05,-1.447e-05,-0.0228116,-0.0159493,0.0144133,-23.0458,21.4556,-4.40288,24.9749,21.9342,-27.3176
0.434,1.16554e-05,1.32989e-05,1.05811e-06,-0.0475817,-0.0332679,0.0300639,-22.1875,21.8369,-3.49141,25.6025,22.3226,-27.5974
0.435,6.73244e-06,5.91333e-06,1.1582e-05,-0.0807969,-0.0564911,0.0510506,-21.0024,22.2372,-2.40587,26.3212,22.7673,-27.8438
0.436,3.06593e-06,2.55819e-06,1.74844e-05,-0.121813,-0.0851683,0.0769661,-19.5634,22.6351,-1.18553,27.1391,23.2669,-28.0651
0.437,5.73021e-07,1.35494e-06,1.8919e-05,-0.167891,-0.117385,0.10608,-17.9424,23.0164,0.124091,28.0583,23.8131,-28.2716
0.438,-9.19482e-07,3.35241e-07,1.56623e-05,-0.213219,-0.149077,0.13472,-16.2043,23.3736,1.47424,29.0728,24.3902,-28.4732
0.439,-1.6113e-06,-2.50502e-06,7.08113e-06,-0.247843,-0.173286,0.156597,-14.4034,23.7047,2.81636,30.1671,24.976,-28.6785
0.44,-1.68932e-06,-9.15573e-06,-7.77912e-06,-0.25667,-0.179457,0.162174,-12.5815,24.0125,4.10542,31.3165,25.5434,-28.8931
0.441,-1.30818e-06,-2.14978e-05,-2.99705e-05,-0.218797,-0.152977,0.138245,-10.7677,24.3037,5.30288,32.488,26.0621,-29.1186
0.442,-5.86429e-07,-4.11153e-05,-6.02621e-05,-0.107555,-0.0751998,0.0679576,-8.97922,24.5874,6.37922,33.6442,26.5022,-29.3535
0.443,3.85513e-07,-6.89709e-05,-9.85819e-05,0.108229,0.0756708,-0.0683832,-7.22391,24.8735,7.31557,34.7476,26.8362,-29.5945
0.444,1.52863e-06,-0.000104909,-0.000143269,0.461094,0.322385,-0.291337,-5.5024,25.1709,8.10426,35.7651,27.0416,-29.8368
0.445,2.75228e-06,-0.000146969,-0.000190146,0.97921,0.684638,-0.618703,-3.81079,25.4858,8.74814,36.6734,27.1031,-30.0757
0.446,3.92699e-06,-0.000190521,-0.000231467,1.6773,1.17273,-1.05979,-2.14292,25.8205,9.25903,37.4608,27.0143,-30.306
0.447,4.85589e-06,-0.000227283,-0.000254853,2.54367,1.77847,-1.60719,-0.49251,26.1735,9.65581,38.1276,26.7788,-30.5231
0.448,5.24805e-06,-0.000244346,-0.000242425,3.52304,2.46322,-2.226,1.14495,26.5404,9.96234,38.6824,26.4098,-30.7219
0.449,4.69909e-06,-0.000223426,-0.000170445,4.49589,3.14341,-2.84068,2.7706,26.9149,10.2055,39.1381,25.9293,-30.8979
0.45,2.68656e-06,-0.000140668,-9.9191e-06,5.25566,3.67462,-3.32073,4.38119,27.29,10.4134,39.5072,25.3652,-31.0462
0.451,-1.41009e-06,3.25437e-05,0.000271268,5.55029,3.88062,-3.50689,5.96849,27.6583,10.6126,39.799,24.7484,-31.1608
0.452,-8.25209e-06,0.000327183,0.000703983,5.25566,3.67462,-3.32073,7.51927,28.0125,10.8253,40.0193,24.1096,-31.2337
0.453,-1.84318e-05,0.000771918,0.00131051,4.49589,3.14341,-2.84068,9.01609,28.3466,11.0644,40.1719,23.4752,-31.2551
0.454,-3.22965e-05,0.00138547,0.0020936,3.52304,2.46322,-2.226,10.4388,28.6557,11.3308,40.2615,22.8648,-31.2155
0.455,-4.96919e-05,0.00216541,0.00302139,2.54367,1.77847,-1.60719,11.7665,28.9373,11.6128,40.2949,22.2899,-31.1085
0.456,-6.96218e-05,0.00307295,0.00400848,1.6773,1.17273,-1.05979,12.979,29.1912,11.8888,40.2822,21.7527,-30.9339
0.457,-8.98302e-05,0.00401425,0.00489405,0.97921,0.684638,-0.618703,14.0594,29.4199,12.1326,40.2351,21.2472,-30.6991
0.458,-0.000106336,0.00481903,0.00541943,0.461094,0.322385,-0.291337,14.9961,29.6292,12.3196,40.1645,20.7604,-30.4177
0.459,-0.000112984,0.00521949,0.00520939,0.108229,0.0756703,-0.068383,15.7833,29.8278,12.4328,40.0781,20.2734,-30.108
0.46,-0.00010111,0.00483365,0.00376381,-0.107555,-0.0752005,0.0679578,16.4213,30.0269,12.4658,39.9776,19.7638,-29.7896
0.461,-5.94881e-05,0.00316023,0.00046908,-0.218798,-0.152978,0.138245,16.9146,30.2394,12.4222,39.8587,19.2078,-29.4808
0.462,2.52425e-05,-0.000405627,-0.00535865,-0.25667,-0.179458,0.162174,17.2704,30.4784,12.3129,39.713,18.5837,-29.1957
0.463,0.000167379,-0.00652354,-0.0143835,-0.247844,-0.173287,0.156598,17.4972,30.7549,12.1531,39.5314,17.8757,-28.9438
0.464,0.000379884,-0.0158115,-0.0270975,-0.21322,-0.149079,0.134721,17.604,31.076,11.9602,39.3074,17.0773,-28.73
0.465,0.000670713,-0.0286872,-0.0435917,-0.167891,-0.117386,0.106081,17.6015,31.4423,11.7503,39.0399,16.1929,-28.5551
0.466,0.00103746,-0.0451328,-0.0632402,-0.121813,-0.0851687,0.0769662,17.5025,31.8474,11.5352,38.734,15.239,-28.4156
0.467,0.00146021,-0.0643773,-0.0843006,-0.0807965,-0.0564901,0.0510502,17.3229,32.2805,11.3203,38.4006,14.2418,-28.3048
0.468,0.00189268,-0.0844992,-0.103449,-0.0475807,-0.0332647,0.0300627,17.0812,32.7285,11.1082,38.0547,13.2352,-28.2125
0.469,0.00225239,-0.101974,-0.115303,-0.0228097,-0.0159431,0.0144109,16.7964,33.1802,10.9052,37.7143,12.2559,-28.1254
0.47,0.00241097,-0.111223,-0.112009,-0.00584716,-0.00408023,0.00369257,16.4856,33.6282,10.7231,37.3984,11.3383,-28.0285
0.471,0.00218681,-0.104245,-0.0830535,0.00460375,0.00323061,-0.00291163,16.1598,34.0692,10.5772,37.1273,10.5105,-27.9068
0.472,0.00134348,-0.070491,-0.0154695,0.010065,0.00705317,-0.00636322,15.8232,34.5036,10.4806,36.9217,9.78928,-27.7487
0.473,-0.000401899,0.00283363,0.105286,0.0120062,0.00841448,-0.00759073,15.4738,34.9337,10.44,36.8024,9.17922,-27.548
0.474,-0.00335426,0.129778,0.29348,0.011692,0.00819762,-0.00739284,15.1072,35.3618,10.4546,36.7881,8.67212,-27.3041
0.475,-0.00779368,0.323658,0.559944,0.0101178,0.00709716,-0.0063982,14.7195,35.7887,10.5177,36.8929,8.24927,-27.0221
0.476,-0.0138989,0.593753,0.907287,0.00800559,0.00561591,-0.00506251,14.31,36.2127,10.6206,37.1229,7.88484,-26.7121
0.477,-0.0216355,0.9404,1.32327,0.00583387,0.00408591,-0.00368754,13.8835,36.6299,10.7556,37.4742,7.55033,-26.3873
0.478,-0.030605,1.34831,1.77238,0.00388399,0.00270099,-0.00245035,13.4517,37.0336,10.9171,37.9308,7.21897,-26.0631
0.479,-0.0398592,1.77818,2.18598,0.00229028,0.00155215,-0.00143515,13.0321,37.4151,11.1009,38.4648,6.86948,-25.7557
0.48,-0.0476893,2.15712,2.45205,0.00108667,0.000660697,-0.000662815,12.6464,37.7638,11.3011,39.0383,6.48864,-25.4802
0.481,-0.0514188,2.36888,2.40635,0.000245623,6.37871e-06,-0.000115738,12.3171,38.0681,11.5097,39.6059,6.07254,-25.2491
0.482,-0.0472431,2.24597,1.82786,-0.000291728,-0.000450316,0.000242857,12.0645,38.316,11.7174,40.1188,5.62664,-25.0692
0.483,-0.0301838,1.56646,0.442671,-0.000594086,-0.000751501,0.00045494,11.9041,38.4965,11.9155,40.5286,5.16456,-24.94
0.484,0.00574615,0.0597739,-2.05835,-0.000725842,-0.00093008,0.000558284,11.8446,38.599,12.0981,40.7907,4.70636,-24.853
0.485,0.0670468,-2.57317,-5.98148,-0.000738812,-0.00100189,0.000580764,11.8871,38.6151,12.2626,40.8666,4.27627,-24.7924
0.486,0.159762,-6.61901,-11.5646,-0.000668333,-0.000961104,0.000537447,12.025,38.5382,12.4086,40.7261,3.9002,-24.7376
0.487,0.287892,-12.2833,-18.877,-0.000532508,-0.000778501,0.000429859,12.2458,38.3648,12.5362,40.3482,3.60322,-24.665
0.488,0.451045,-19.5879,-27.6809,-0.000333725,-0.000402862,0.00024703,12.5324,38.095,12.6453,39.7227,3.4071,-24.5528
0.489,0.631502,-28.2787,-37.3413,-6.19851e-05,0.000233895,-3.17055e-05,12.8644,37.7329,12.735,38.8503,3.32797,-24.3856
0.49,0.756462,-37.8666,-47.0009,0.00030006,0.00120658,-0.000431935,13.2196,37.2866,12.8045,37.7428,3.37418,-24.1579
0.491,0.674229,-47.8368,-56.0153,0.000770174,0.00258009,-0.000976962,13.5755,36.7673,12.8532,36.4209,3.54434,-23.872
0.492,0.221157,-57.8682,-64.2876,0.00135737,0.0043845,-0.00167762,13.9107,36.1885,12.8812,34.9142,3.82579,-23.5315
0.493,-0.649209,-67.9025,-72.2664,0.00205016,0.00658079,-0.00251866,14.2067,35.5653,12.8887,33.2609,4.19509,-23.1357
0.494,-1.82277,-78.043,-80.7198,0.00280222,0.00901671,-0.00344163,14.4483,34.9139,12.8759,31.5081,4.62174,-22.6863
0.495,-3.14716,-88.3991,-90.4758,0.00351577,0.0113743,-0.0043248,14.6233,34.2509,12.8426,29.7096,5.07449,-22.2087
0.496,-4.61495,-99.036,-102.255,0.00402425,0.0131138,-0.00496182,14.7223,33.5921,12.7876,27.9245,5.5267,-21.7791
0.497,-6.42175,-110.045,-116.651,0.00407671,0.0134216,-0.00504249,14.7388,32.9514,12.7094,26.2174,5.95808,-21.5384
0.498,-8.83747,-121.568,-134.21,0.00332835,0.0111778,-0.0041408,14.6683,32.3396,12.6076,24.6613,6.35227,-21.6667
0.499,-12.0062,-133.691,-155.535,0.00134346,0.00496219,-0.00171822,14.5082,31.7637,12.4836,23.3417,6.69226,-22.3105
0.5,-15.8189,-146.318,-181.35,-0.00238064,-0.00687274,0.00284737,14.2579,31.2281,12.3407,22.3563,6.95733,-23.4966
0.501,-19.9001,-159.17,-212.493,-0.00835837,-0.0260277,0.010194,13.9189,30.7344,12.1822,21.8047,7.12475,-25.0938
0.502,-23.6585,-171.865,-249.804,-0.0170174,-0.053943,0.0208551,13.4952,30.2827,12.0106,21.7687,7.17694,-26.8525
0.503,-26.3575,-183.966,-293.896,-0.0285457,-0.0913072,0.0350709,12.9934,29.8711,11.8262,22.2948,7.11223,-28.493
0.504,-27.2045,-194.954,-344.892,-0.042675,-0.137358,0.0525223,12.4226,29.4968,11.6283,23.3949,6.95531,-29.7807
0.505,-25.4361,-204.199,-402.257,-0.058399,-0.18897,0.0719828,11.7938,29.1559,11.4167,25.0644,6.76276,-30.5537
0.506,-20.3553,-210.98,-464.782,-0.0736368,-0.23955,0.0909029,11.1196,28.8441,11.1928,27.3086,6.62057,-30.717
0.507,-11.3248,-214.608,-530.652,-0.0848697,-0.277849,0.10496,10.4139,28.5566,10.9602,30.1636,6.63253,-30.2301
0.508,2.19454,-214.608,-597.625,-0.0868079,-0.286844,0.107644,9.69166,28.2891,10.7244,33.7049,6.90163,-29.1002
0.509,20.4721,-210.898,-663.289,-0.0721782,-0.243009,0.0899909,8.96822,28.0379,10.4916,38.0452,7.50892,-27.3754
0.51,43.2456,-203.783,-725.365,-0.0317662,-0.116376,0.0406265,8.2592,27.7999,10.2675,43.3249,8.49611,-25.1418
0.511,69.5192,-193.807,-781.984,0.0451085,0.128007,-0.0536563,7.58016,27.5732,10.0552,49.6926,9.85692,-22.5299
0.512,97.5612,-181.614,-831.956,0.169461,0.526512,-0.206514,6.94592,27.3562,9.85554,57.2735,11.5382,-19.7353
0.513,125.131,-167.915,-874.964,0.350603,1.11044,-0.429551,6.36942,27.1482,9.66751,66.1195,13.4481,-17.0508
0.514,149.814,-153.46,-911.535,0.592957,1.89579,-0.728401,5.86034,26.9486,9.48869,76.148,15.4698,-14.8793
0.515,169.316,-138.93,-942.697,0.891518,2.86861,-1.09714,5.4241,26.7581,9.31567,87.0902,17.4793,-13.6934
0.516,181.64,-124.825,-969.505,1.22593,3.96576,-1.51097,5.06161,26.578,9.1441,98.4727,19.3708,-13.9512
0.517,185.202,-111.48,-992.723,1.55335,5.05165,-1.91741,4.76973,26.41,8.96879,109.641,21.0804,-16.0109
0.518,178.906,-99.1537,-1012.78,1.80071,5.89277,-2.22671,4.54225,26.2555,8.78423,119.812,22.602,-20.0623
0.519,162.25,-88.1059,-1029.86,1.87907,6.20447,-2.32962,4.37089,26.115,8.58587,128.141,23.9921,-26.0505
0.52,135.452,-78.6465,-1044.04,1.74317,5.84579,-2.17103,4.24624,25.9887,8.3712,133.816,25.3666,-33.5766
0.521,99.5709,-71.1874,-1055.34,1.43316,4.95494,-1.80156,4.15856,25.8761,8.14,136.158,26.885,-41.821
0.522,56.5561,-66.2314,-1063.81,1.03436,3.81502,-1.32743,4.09844,25.7765,7.89367,134.699,28.7222,-49.5927
0.523,9.17142,-64.2707,-1069.69,0.619282,2.66042,-0.838288,4.05748,25.6895,7.6344,129.239,31.0358,-55.5833
0.524,-39.2537,-65.6925,-1073.53,0.235083,1.6314,-0.391155,4.02871,25.6146,7.36464,119.836,33.9435,-58.7695
0.525,-85.2131,-70.7745,-1076.11,-0.0867838,0.800872,-0.0218067,4.00726,25.551,7.08686,106.729,37.51,-58.7553
0.526,-125.419,-79.6869,-1078.31,-0.321445,0.198989,0.244615,3.99096,25.4982,6.80314,90.2515,41.7382,-55.8459
0.527,-157.065,-92.3857,-1080.8,-0.44296,-0.166738,0.384779,3.98061,25.4554,6.51449,70.8171,46.567,-50.8245
0.528,-177.955,-108.469,-1083.86,-0.418839,-0.296636,0.370866,3.97978,25.4218,6.2205,48.9783,51.8841,-44.598
0.529,-186.589,-127.165,-1087.51,-0.207441,-0.189823,0.167452,3.994,25.3956,5.92006,25.5104,57.5472,-37.9253
0.53,-182.297,-147.472,-1091.8,0.240915,0.158991,-0.267719,4.02946,25.374,5.61297,1.44133,63.3859,-31.3377
0.531,-165.444,-168.336,-1097.08,0.978109,0.756796,-0.978172,4.09152,25.3524,5.30106,-22.0052,69.1641,-25.2082
0.532,-137.585,-188.773,-1104.06,2.04649,1.60357,-1.99741,4.18354,25.3252,4.98868,-43.5373,74.5255,-19.845
0.533,-101.435,-207.91,-1113.55,3.46015,2.67752,-3.33095,4.30626,25.2861,4.68262,-61.9548,78.9715,-15.5167
0.534,-60.544,-224.987,-1126.11,5.17828,3.91437,-4.93102,4.45723,25.2296,4.39179,-76.3007,81.9032,-12.4162
0.535,-18.8055,-239.371,-1141.69,7.0708,5.18167,-6.66422,4.63074,25.1516,4.12622,-85.9692,82.7122,-10.6204
0.536,20.0332,-250.6,-1159.68,8.87744,6.24977,-8.27357,4.81945,25.0491,3.8952,-90.7544,80.888,-10.0766
0.537,52.7262,-258.493,-1179.24,10.2192,6.80608,-9.38952,5.01738,24.9183,3.70578,-90.8481,76.1315,-10.6184
0.538,76.7602,-263.263,-1199.68,10.7821,6.59953,-9.70281,5.22206,24.7545,3.56205,-86.8,68.4644,-12.0008
0.539,90.5058,-265.552,-1220.7,10.5745,5.63259,-9.21079,5.43458,24.5533,3.46546,-79.4431,58.2899,-13.9507
0.54,93.3195,-266.309,-1242.21,9.92035,4.15931,-8.22096,5.65806,24.3128,3.41527,-69.7747,46.3446,-16.2144
0.541,85.6039,-266.558,-1264.11,9.17794,2.49985,-7.09495,5.89555,24.0354,3.40893,-58.8113,33.5475,-18.586
0.542,68.8148,-267.114,-1286.15,8.52013,0.912966,-6.04906,6.14834,23.7283,3.44227,-47.4575,20.8166,-20.9099
0.543,45.388,-268.407,-1307.85,7.8918,-0.40529,-5.1232,6.41521,23.4013,3.50984,-36.4243,8.93314,-23.0665
0.544,18.5162,-270.444,-1328.72,7.09202,-1.31001,-4.23998,6.69266,23.0641,3.60537,-26.197,-1.51931,-24.9536
0.545,-8.27068,-272.897,-1348.46,5.98744,-1.75238,-3.32966,6.97581,22.7237,3.72226,-17.0426,-10.1578,-26.4744
0.546,-31.6541,-275.257,-1367.01,4.66406,-1.80841,-2.42035,7.2594,22.3838,3.85406,-9.04146,-16.7728,-27.5404
0.547,-49.0039,-276.976,-1384.57,3.32317,-1.61658,-1.5927,7.53841,22.0452,3.99509,-2.1334,-21.2946,-28.0834
0.548,-58.6062,-277.583,-1401.38,2.1161,-1.29895,-0.900224,7.80818,21.7063,4.14089,3.83468,-23.7683,-28.0692
0.549,-59.6637,-276.752,-1417.63,1.11038,-0.939195,-0.355381,8.06447,21.3643,4.28842,9.06639,-24.3428,-27.5019
0.55,-52.2318,-274.337,-1433.46,0.318734,-0.589373,0.0534392,8.30341,21.0155,4.43602,13.7804,-23.2694,-26.4207
0.551,-37.1864,-270.371,-1449,-0.276223,-0.278214,0.34832,8.52138,20.6564,4.58284,18.1761,-20.9003,-24.8954
0.552,-16.1646,-265.062,-1464.54,-0.702179,-0.0193924,0.55143,8.7147,20.2843,4.72776,22.3983,-17.6767,-23.0189
0.553,8.62289,-258.79,-1480.43,-0.982083,0.18094,0.677462,8.87952,19.8969,4.86833,26.5037,-14.0973,-20.8992
0.554,34.6802,-252.095,-1497.03,-1.12333,0.317834,0.728428,9.01183,19.4927,5.0004,30.4391,-10.6637,-18.6523
0.555,59.5031,-245.621,-1514.51,-1.11076,0.382652,0.690519,9.10747,19.071,5.11862,34.0376,-7.80539,-16.3958
0.556,80.8026,-240.002,-1532.78,-0.90331,0.359791,0.533017,9.16199,18.632,5.21717,37.0392,-5.80597,-14.2409
0.557,96.7321,-235.739,-1551.43,-0.434903,0.225268,0.209607,9.17086,18.1772,5.29026,39.1411,-4.76298,-12.284
0.558,106.127,-233.121,-1569.9,0.379668,-0.0524131,-0.337149,9.13012,17.7084,5.33242,40.0704,-4.5954,-10.5985
0.559,108.635,-232.215,-1587.58,1.63208,-0.508547,-1.16711,9.03714,17.2275,5.33895,39.6599,-5.08965,-9.22881
0.56,104.645,-232.857,-1604.03,3.39919,-1.17493,-2.32831,8.89118,16.7361,5.30666,37.9004,-5.96057,-8.1887
0.561,95.0784,-234.65,-1618.97,5.71119,-2.06818,-3.83581,8.69354,16.2343,5.2347,34.9527,-6.90898,-7.46632
0.562,81.1965,-236.969,-1632.28,8.50744,-3.17307,-5.64286,8.44757,15.7217,5.1251,31.1185,-7.66854,-7.03428
0.563,64.5135,-239.026,-1643.91,11.5802,-4.42062,-7.60413,8.1579,15.1973,4.98293,26.7879,-8.03993,-6.85978
0.564,46.7402,-239.961,-1653.93,14.5078,-5.66164,-9.43293,7.8293,14.6607,4.81594,22.3758,-7.90928,-6.9098
0.565,29.6782,-238.958,-1662.51,16.653,-6.6559,-10.7077,7.46571,14.1131,4.63334,18.2633,-7.24848,-7.149
0.566,15.0515,-235.393,-1669.95,17.3728,-7.12823,-11.0352,7.06968,13.5582,4.44405,14.752,-6.09981,-7.53312
0.567,4.3237,-228.997,-1676.62,16.3872,-6.90848,-10.3014,6.64242,13.0012,4.25495,12.0365,-4.55234,-8.0051
0.568,-1.45656,-219.948,-1682.79,13.975,-6.05525,-8.7486,6.18426,12.4488,4.0697,10.1954,-2.71827,-8.49927
0.569,-1.78024,-208.843,-1688.65,10.7916,-4.8216,-6.79885,5.69535,11.9082,3.88865,9.20093,-0.714309,-8.95236
0.57,3.24445,-196.586,-1694.29,7.50545,-3.49302,-4.83097,5.1766,11.386,3.71025,8.94129,1.35151,-9.31493
0.571,12.9159,-184.233,-1699.77,4.58959,-2.27402,-3.08587,4.63068,10.8883,3.53304,9.25167,3.3886,-9.55802
0.572,26.0933,-172.819,-1705.23,2.32697,-1.28137,-1.68228,4.06264,10.4194,3.35724,9.94584,5.32871,-9.67326
0.573,41.4123,-163.175,-1710.84,0.878963,-0.57284,-0.658393,3.48014,9.9815,3.18492,10.8435,7.12695,-9.66784
0.574,57.4447,-155.781,-1716.8,0.339349,-0.170997,-0.00614168,2.89305,9.57402,3.01883,11.7903,8.75994,-9.55692
0.575,72.7501,-150.731,-1723.22,0.768945,-0.0804614,0.303424,2.31266,9.194,2.86062,12.6703,10.2222,-9.35628
0.576,85.8879,-147.786,-1730.08,2.2082,-0.297775,0.303641,1.75052,8.83663,2.71019,13.4096,11.5217,-9.07773
0.577,95.5033,-146.458,-1737.26,4.66607,-0.813686,0.0241688,1.21753,8.49611,2.56632,13.9732,12.6747,-8.72781
0.578,100.529,-146.071,-1744.59,8.08432,-1.60789,-0.509384,0.7234,8.16666,2.42754,14.3565,13.6999,-8.30916
0.579,100.425,-145.832,-1752,12.2775,-2.63652,-1.26886,0.276543,7.84338,2.29225,14.5732,14.6131,-7.82425
0.58,95.3119,-144.937,-1759.49,16.8507,-3.81307,-2.21073,-0.115906,7.52289,2.15875,14.6439,15.4231,-7.28058
0.581,85.9266,-142.696,-1767.03,21.1838,-5.00077,-3.26853,-0.448271,7.20345,2.02571,14.5876,16.1304,-6.69473
0.582,73.4432,-138.614,-1774.54,24.6632,-6.05439,-4.36525,-0.716764,6.88451,1.89271,14.4158,16.7286,-6.09335
0.583,59.2765,-132.449,-1781.83,27.0117,-6.88282,-5.4177,-0.91986,6.5659,1.76018,14.1322,17.2078,-5.51042
0.584,44.9296,-124.254,-1788.62,28.2151,-7.42843,-6.29445,-1.05846,6.24721,1.6291,13.7364,17.5579,-4.98155
0.585,31.8701,-114.387,-1794.74,28.1289,-7.5894,-6.78903,-1.13567,5.92725,1.50091,13.2299,17.7731,-4.53711
0.586,21.4217,-103.458,-1800.16,26.4499,-7.24855,-6.71256,-1.15627,5.60364,1.37777,12.6214,17.8548,-4.19727
0.587,14.6797,-92.2063,-1805.03,23.1303,-6.40128,-6.04165,-1.12611,5.27276,1.26266,11.929,17.8125,-3.97071
0.588,12.4192,-81.3753,-1809.56,18.6297,-5.20375,-4.94425,-1.05158,4.93008,1.15926,11.1785,17.6627,-3.85581
0.589,14.9552,-71.6053,-1813.92,13.7154,-3.88858,-3.6672,-0.939618,4.57059,1.07126,10.4009,17.4267,-3.84195
0.59,21.9839,-63.371,-1818.07,9.08189,-2.65486,-2.4204,-0.798003,4.18916,1.00151,9.62735,17.1274,-3.91016
0.591,32.5249,-56.9218,-1821.86,5.15659,-1.62203,-1.33719,-0.635831,3.78091,0.95116,8.88362,16.7866,-4.03475
0.592,45.0736,-52.2322,-1825.14,2.13374,-0.841422,-0.489055,-0.463657,3.34183,0.919104,8.18566,16.4233,-4.18698
0.593,57.9124,-49.0048,-1827.89,0.068886,-0.321123,0.0885057,-0.293374,2.8693,0.901739,7.53906,16.0544,-4.33991
0.594,69.4117,-46.7353,-1830.34,-1.047,-0.0452124,0.375414,-0.138063,2.36229,0.893609,6.94264,15.6956,-4.47213
0.595,78.2116,-44.8034,-1832.88,-1.23641,0.0131909,0.352999,-0.0118398,1.8214,0.888571,6.39399,15.3624,-4.56862
0.596,83.3134,-42.5575,-1835.98,-0.507361,-0.115224,-0.00286638,0.0704345,1.24921,0.880824,5.89424,15.0704,-4.61993
0.597,84.1464,-39.4013,-1839.96,1.15131,-0.397784,-0.720915,0.0938505,0.650653,0.865495,5.45094,14.8338,-4.62223
0.598,80.6087,-34.8858,-1844.75,3.75182,-0.797063,-1.82533,0.0446954,0.0327724,0.83884,5.07931,14.6641,-4.57841
0.599,73.064,-28.7687,-1849.94,7.2663,-1.26436,-3.3177,-0.0879316,-0.595842,0.798329,4.80143,14.5691,-4.49832
0.6,62.3165,-21.0133,-1854.84,11.5628,-1.73042,-5.14969,-0.310542,-1.22565,0.742779,4.64299,14.5531,-4.39753
0.601,49.5671,-11.7656,-1858.82,16.3201,-2.09475,-7.18672,-0.624151,-1.84647,0.6724,4.62804,14.6183,-4.29575
0.602,36.3108,-1.3433,-1861.41,21.0016,-2.23398,-9.19437,-1.02403,-2.44758,0.588698,4.77357,14.7658,-4.21492
0.603,24.1413,9.78329,-1862.44,24.9731,-2.05034,-10.8807,-1.50038,-3.01796,0.494531,5.08511,14.9966,-4.1768
0.604,14.4834,21.0371,-1862.02,27.6313,-1.52368,-11.9528,-2.03928,-3.54654,0.394263,5.55364,15.312,-4.20017
0.605,8.33906,31.8049,-1860.4,28.4986,-0.731457,-12.1924,-2.62374,-4.02248,0.293542,6.15427,15.7128,-4.29898
0.606,6.1513,41.5164,-1857.77,27.4388,0.167951,-11.5841,-3.23486,-4.43545,0.198477,6.84801,16.1984,-4.48138
0.607,7.82475,49.7139,-1854.21,24.8044,1.00054,-10.347,-3.85298,-4.77589,0.114719,7.58668,16.7661,-4.74867
0.608,12.8365,56.1096,-1849.74,21.194,1.63261,-8.76984,-4.45873,-5.03573,0.046945,8.3194,17.4097,-5.09396
0.609,20.3455,60.6306,-1844.41,17.0851,1.97405,-7.04804,-5.0338,-5.20919,-0.00135146,8.99824,18.1188,-5.50154
0.61,29.2753,63.4328,-1838.34,12.8186,2.00142,-5.30633,-5.56141,-5.29346,-0.0279292,9.58186,18.8782,-5.94823
0.611,38.4018,64.8755,-1831.77,8.76636,1.78483,-3.6808,-6.02656,-5.28901,-0.0315251,10.0378,19.6685,-6.40683
0.612,46.4676,65.4757,-1825,5.28192,1.44028,-2.29852,-6.416,-5.19949,-0.0113826,10.3435,20.467,-6.84968
0.613,52.3259,65.8615,-1818.35,2.57039,1.06429,-1.22347,-6.71846,-5.03146,0.0328353,10.4873,21.2506,-7.25047
0.614,55.1167,66.7186,-1812.01,0.696732,0.718171,-0.458968,-6.92511,-4.79385,0.100763,10.4667,21.9976,-7.58485
0.615,54.4458,68.7143,-1806,-0.347991,0.436557,0.0257222,-7.02972,-4.49731,0.191116,10.2852,22.6888,-7.83425
0.616,50.4697,72.401,-1800.17,-0.600202,0.235522,0.276158,-7.02881,-4.15355,0.301655,9.94601,23.3069,-7.99632
0.617,43.8248,78.1197,-1794.19,-0.0975104,0.119353,0.340154,-6.92177,-3.77508,0.429349,9.45248,23.836,-8.09045
0.618,35.4369,85.9152,-1787.71,1.12798,0.0854649,0.261001,-6.71123,-3.37503,0.570817,8.82281,24.2667,-8.14137
0.619,26.318,95.485,-1780.37,3.03763,0.127305,0.0753507,-6.40317,-2.96674,0.722788,8.10834,24.6052,-8.15618
0.62,17.4368,106.206,-1771.91,5.55649,0.23527,-0.185283,-6.00662,-2.56296,0.882401,7.39122,24.8751,-8.12677
0.621,9.66001,117.252,-1762.25,8.52693,0.395794,-0.49032,-5.53313,-2.17484,1.04738,6.76193,25.1098,-8.04924
0.622,3.70432,127.764,-1751.46,11.6484,0.588844,-0.804053,-4.99616,-1.81125,1.21597,6.2985,25.3383,-7.93003
0.623,0.0733838,137.007,-1739.76,14.4077,0.784199,-1.07854,-4.41046,-1.47847,1.38646,6.05638,25.577,-7.77704
0.624,-0.990365,144.484,-1727.37,16.1036,0.937265,-1.25435,-3.79149,-1.18015,1.55661,6.06047,25.8279,-7.59319
0.625,0.476341,149.975,-1714.4,16.168,0.996969,-1.28553,-3.15486,-0.917268,1.72349,6.29734,26.0801,-7.37901
0.626,4.14404,153.536,-1700.84,14.604,0.937626,-1.17394,-2.51584,-0.688159,1.88364,6.71644,26.3122,-7.13827
0.627,9.38571,155.466,-1686.7,11.9809,0.780414,-0.96745,-1.88894,-0.488733,2.03325,7.24405,26.5018,-6.88102
0.628,15.3502,156.25,-1672.09,8.99101,0.570876,-0.723624,-1.2873,-0.3129,2.16847,7.80226,26.635,-6.62223
0.629,21.1426,156.495,-1657.22,6.12918,0.347441,-0.484,-0.722287,-0.153233,2.28565,8.32454,26.7108,-6.37594
0.63,26.018,156.846,-1642.37,3.66622,0.134595,-0.272171,-0.203087,-0.00180461,2.38187,8.76423,26.737,-6.14741
0.631,29.4645,157.932,-1627.71,1.71655,-0.0518984,-0.0994199,0.263295,0.14891,2.45546,9.0958,26.724,-5.9301
0.632,31.1628,160.286,-1613.31,0.297549,-0.199927,0.0301832,0.671878,0.305237,2.50678,9.31051,26.6817,-5.71125
0.633,30.9119,164.247,-1599.07,-0.622355,-0.29657,0.115559,1.01956,0.471862,2.53835,9.4101,26.6186,-5.48217
0.634,28.6197,169.86,-1584.8,-1.08828,-0.324603,0.155428,1.30508,0.651909,2.55405,9.40154,26.542,-5.24517
0.635,24.3653,176.857,-1570.28,-1.13557,-0.260314,0.146218,1.52869,0.847507,2.55757,9.2945,26.4591,-5.01202
0.636,18.4417,184.735,-1555.34,-0.777843,-0.0731085,0.0811199,1.69136,1.06027,2.5513,9.10045,26.378,-4.79614
0.637,11.3344,192.88,-1539.91,-0.00562864,0.272525,-0.0496006,1.79416,1.29113,2.53575,8.83174,26.3095,-4.60494
0.638,3.66288,200.681,-1523.92,1.20463,0.811947,-0.256871,1.83833,1.53964,2.51003,8.5003,26.2673,-4.43733
0.639,-3.8818,207.596,-1507.31,2.87123,1.57138,-0.549446,1.82596,1.80354,2.4728,8.11638,26.2658,-4.28581
0.64,-10.6232,213.225,-1490.02,4.97703,2.55427,-0.928675,1.76052,2.07891,2.42318,7.68826,26.3174,-4.13952
0.641,-16.0195,217.371,-1472.06,7.42848,3.72243,-1.38125,1.64693,2.36069,2.36098,7.22321,26.4304,-3.98604
0.642,-19.7496,220.079,-1453.48,10.0047,4.97223,-1.87001,1.49093,2.64359,2.28659,6.7293,26.6083,-3.81232
0.643,-21.6914,221.626,-1434.44,12.2997,6.10704,-2.32318,1.29844,2.92284,2.20085,6.21695,26.8497,-3.60676
0.644,-21.8318,222.456,-1415.11,13.7365,6.84071,-2.63249,1.07517,3.19465,2.10477,5.69931,27.1488,-3.36275
0.645,-20.2203,223.088,-1395.62,13.8218,6.91642,-2.69318,0.826507,3.45647,1.99955,5.19111,27.4956,-3.08121
0.646,-17.0168,224.003,-1376.03,12.514,6.29712,-2.48216,0.557497,3.70677,1.88645,4.70633,27.8772,-2.76964
0.647,-12.5738,225.52,-1356.32,10.2441,5.19436,-2.08216,0.273146,3.94462,1.76675,4.25547,28.2789,-2.43852
0.648,-7.46076,227.714,-1336.45,7.5545,3.89054,-1.61408,-0.021323,4.16918,1.64153,3.84362,28.6854,-2.09834
0.649,-2.38488,230.419,-1316.38,4.82383,2.58927,-1.17015,-0.320484,4.37981,1.51162,3.47021,29.0821,-1.75845
0.65,1.94929,233.339,-1296.1,2.2443,1.39793,-0.802415,-0.619001,4.57627,1.37778,3.13037,29.4572,-1.42707
0.651,4.95967,236.179,-1275.61,-0.112957,0.358546,-0.533037,-0.911816,4.75882,1.24109,2.8168,29.802,-1.11165
0.652,6.24507,238.726,-1254.91,-2.23507,-0.523321,-0.363126,-1.19403,4.92812,1.10309,2.5208,30.1119,-0.819346
0.653,5.59876,240.852,-1233.94,-4.10927,-1.25291,-0.279387,-1.46071,5.08514,0.965744,2.23259,30.386,-0.557275
0.654,3.00561,242.481,-1212.58,-5.67058,-1.82439,-0.258478,-1.70686,5.23122,0.830956,1.94118,30.6271,-0.33168
0.655,-1.37755,243.566,-1190.7,-6.75633,-2.20293,-0.269375,-1.92759,5.36799,0.700137,1.63465,30.8403,-0.14662
0.656,-7.25783,244.106,-1168.21,-7.14346,-2.33387,-0.278869,-2.11869,5.49732,0.573895,1.30078,31.0317,-0.0034979
0.657,-14.22,244.16,-1145.05,-6.74634,-2.20271,-0.265506,-2.27727,5.62127,0.452046,0.927709,31.2077,0.0979835
0.658,-21.7006,243.842,-1121.25,-5.75621,-1.87784,-0.228812,-2.40217,5.74205,0.334124,0.504794,31.3732,0.158465
0.659,-28.9819,243.296,-1096.9,-4.50065,-1.46717,-0.180435,-2.494,5.86182,0.220056,0.0237769,31.5319,0.178377
0.66,-35.2749,242.67,-1072.08,-3.24217,-1.05613,-0.131108,-2.55509,5.98222,0.110387,-0.519948,31.6855,0.158752
0.661,-39.8889,242.099,-1046.86,-2.13206,-0.693889,-0.0871157,-2.58901,6.10405,0.00593449,-1.12647,31.8335,0.103423
0.662,-42.3995,241.671,-1021.32,-1.23961,-0.402887,-0.0514361,-2.59991,6.2271,-0.0928924,-1.79154,31.9742,0.0213152
0.663,-42.6978,241.392,-995.556,-0.578696,-0.187541,-0.0247896,-2.59187,6.35051,-0.186778,-2.50801,32.1045,-0.0737614
0.664,-40.9137,241.166,-969.728,-0.12971,-0.0413674,-0.00651362,-2.56844,6.47322,-0.277567,-3.2676,32.2211,-0.166551
0.665,-37.3207,240.819,-944.004,0.1439,0.0476071,0.00477076,-2.53225,6.59435,-0.367581,-4.06181,32.3207,-0.244509
0.666,-32.2958,240.149,-918.523,0.284056,0.0930872,0.0106899,-2.48484,6.71343,-0.458979,-4.88145,32.3999,-0.299994
0.667,-26.3214,238.972,-893.348,0.330773,0.108138,0.0128187,-2.42659,6.83061,-0.553571,-5.71569,32.4562,-0.330159
0.668,-19.9867,237.139,-868.462,0.318196,0.103898,0.0125143,-2.35692,6.94661,-0.652651,-6.5517,32.4887,-0.335602
0.669,-13.9651,234.53,-843.777,0.273028,0.0890735,0.0108473,-2.27462,7.06263,-0.756574,-7.37542,32.4981,-0.318674
0.67,-8.96601,231.065,-819.176,0.214507,0.0699302,0.00859553,-2.17836,7.18007,-0.864438,-8.17312,32.4867,-0.281955
0.671,-5.63928,226.75,-794.54,0.155285,0.0505863,0.0062761,-2.0672,7.30025,-0.974225,-8.93314,32.4572,-0.227238
0.672,-4.4368,221.742,-769.791,0.102722,0.0334333,0.00419427,-1.94098,7.4241,-1.08347,-9.64726,32.4114,-0.155249
0.673,-5.49949,216.344,-744.917,0.0602535,0.0195851,0.00249725,-1.80034,7.5521,-1.19023,-10.3112,32.3499,-0.065978
0.674,-8.63577,210.915,-719.987,0.0286526,0.00928805,0.00122382,-1.64663,7.68448,-1.29378,-10.924,32.2715,0.0404982
0.675,-13.3979,205.776,-695.156,0.00706744,0.00226036,0.000345748,-1.48166,7.82168,-1.39465,-11.4879,32.1738,0.162778
0.676,-19.212,201.133,-670.639,-0.00618558,-0.00204971,-0.000200322,-1.30769,7.96454,-1.49424,-12.0074,32.0529,0.296858
0.677,-25.4887,197.056,-646.669,-0.0130679,-0.00428342,-0.000490403,-1.12734,8.11399,-1.59442,-12.4892,31.9034,0.435776
0.678,-31.6498,193.488,-623.434,-0.0154669,-0.005057,-0.000598717,-0.943152,8.27075,-1.69705,-12.9405,31.7191,0.570764
0.679,-37.0958,190.281,-601.014,-0.0150022,-0.00489885,-0.000589611,-0.756907,8.4351,-1.80374,-13.3676,31.4933,0.693233
0.68,-41.2079,187.243,-579.343,-0.0129464,-0.00422385,-0.00051408,-0.569457,8.60681,-1.91598,-13.7741,31.2198,0.796106
0.681,-43.4366,184.156,-558.202,-0.0102208,-0.00333217,-0.000409365,-0.381074,8.78517,-2.03553,-14.1596,30.894,0.873682
0.682,-43.4311,180.796,-537.294,-0.00743517,-0.00242222,-0.000300357,-0.192055,8.96909,-2.16508,-14.5197,30.5139,0.920778
0.683,-41.1345,176.931,-516.39,-0.00494711,-0.00161025,-0.000201877,-0.00336189,9.15734,-2.30871,-14.8459,30.0809,0.932675
0.684,-36.8077,172.351,-495.464,-0.00292676,-0.000951423,-0.000121193,0.182766,9.3486,-2.47162,-15.1276,29.5996,0.906299
0.685,-30.9714,166.905,-474.706,-0.00141621,-0.000459193,-6.03624e-05,0.362614,9.54188,-2.65911,-15.3532,29.0781,0.841769
0.686,-24.2805,160.573,-454.412,-0.000378865,-0.000121434,-1.81982e-05,0.531478,9.73674,-2.87503,-15.5129,28.528,0.743521
0.687,-17.3892,153.51,-434.83,0.000262735,8.72415e-05,8.20801e-06,0.684528,9.93317,-3.11996,-15.5994,27.9642,0.621205
0.688,-10.8731,146.04,-416.079,0.000600302,0.000196819,2.24095e-05,0.817567,10.1309,-3.38916,-15.6077,27.4048,0.490626
0.689,-5.2165,138.597,-398.142,0.00072281,0.000236353,2.79077e-05,0.92744,10.3282,-3.67133,-15.5334,26.8699,0.374042
0.69,-0.831565,131.62,-380.909,0.000707054,0.000230898,2.77575e-05,1.01213,10.5216,-3.94932,-15.3716,26.3802,0.29809
0.691,1.93944,125.467,-364.237,0.000613666,0.000200219,2.43936e-05,1.07072,10.7045,-4.20277,-15.1157,25.9555,0.287797
0.692,2.87496,120.38,-347.995,0.000486756,0.000158688,1.96044e-05,1.10342,10.8681,-4.41193,-14.7588,25.6125,0.357862
0.693,1.95601,116.486,-332.125,0.000355679,0.000115858,1.45925e-05,1.11153,11.0023,-4.56224,-14.2941,25.3633,0.507008
0.694,-0.582692,113.801,-316.672,0.000237807,7.73759e-05,1.00788e-05,1.09742,11.0974,-4.64853,-13.7171,25.2149,0.721826
0.695,-4.27627,112.212,-301.723,0.000141552,4.59706e-05,6.41716e-06,1.06435,11.1459,-4.67743,-13.0279,25.1688,0.988802
0.696,-8.52265,111.475,-287.319,6.91838e-05,2.23704e-05,3.70187e-06,1.01629,11.1445,-4.66675,-12.235,25.2207,1.30493
0.697,-12.7061,111.24,-273.404,1.91749e-05,6.07051e-06,1.85672e-06,0.95752,11.0947,-4.64225,-11.3592,25.3617,1.67948
0.698,-16.3142,111.091,-259.865,-1.19885e-05,-4.07711e-06,7.03282e-07,0.892076,11.0034,-4.63275,-10.4371,25.5785,2.12778
0.699,-19.0063,110.597,-246.595,-2.85274e-05,-9.44666e-06,8.66959e-09,0.823657,10.8816,-4.66455,-9.52006,25.8561,2.66185
0.7,-20.594,109.364,-233.522,-3.45468e-05,-1.13706e-05,-4.83066e-07,0.756193,10.744,-4.756,-8.66653,26.1791,3.28351
0.701,-20.9558,107.101,-220.596,-3.3577e-05,-1.09904e-05,-1.03059e-06,0.694944,10.6064,-4.91333,-7.92904,26.5341,3.98364
0.702,-19.9922,103.7,-207.789,-2.838e-05,-9.19486e-06,-1.87995e-06,0.647403,10.4839,-5.1292,-7.34177,26.9111,4.74721
0.703,-17.674,99.2938,-195.113,-2.09404e-05,-6.61874e-06,-3.24797e-06,0.62331,10.3885,-5.38509,-6.91559,27.3042,5.55919
0.704,-14.1273,94.2234,-182.634,-1.25686e-05,-3.67894e-06,-5.29857e-06,0.63357,10.3282,-5.65648,-6.64162,27.7107,6.4063
0.705,-9.67153,88.9069,-170.445,-4.06888e-06,-6.33298e-07,-8.10697e-06,0.688206,10.3066,-5.91789,-6.49963,28.1287,7.27424
0.706,-4.77741,83.7183,-158.631,4.06352e-06,2.35002e-06,-1.1608e-05,0.793626,10.3236,-6.14655,-6.46639,28.5531,8.14392
0.707,0.0255573,78.9682,-147.269,1.14386e-05,5.11927e-06,-1.55275e-05,0.949855,10.3774,-6.32623,-6.52037,28.9736,8.99044
0.708,4.24776,74.943,-136.448,1.75753e-05,7.46724e-06,-1.92991e-05,1.14878,10.4648,-6.45216,-6.64208,29.373,9.78697
0.709,7.51608,71.8896,-126.282,2.1725e-05,9.06538e-06,-2.19745e-05,1.37427,10.5829,-6.53454,-6.81132,29.7282,10.513
0.71,9.61274,69.9268,-116.862,2.27291e-05,9.40979e-06,-2.21418e-05,1.6041,10.7295,-6.59658,-7.00442,30.0133,11.1638
0.711,10.4712,68.9738,-108.214,1.89309e-05,7.78793e-06,-1.78765e-05,1.81307,10.9028,-6.66637,-7.19358,30.2031,11.7553
0.712,10.1331,68.7685,-100.288,8.17088e-06,3.27894e-06,-6.76203e-06,1.97638,11.1004,-6.76713,-7.34918,30.2757,12.3211
0.713,8.69469,68.9305,-92.9893,-1.20921e-05,-5.19489e-06,1.39759e-05,2.07247,11.3183,-6.91109,-7.44404,30.2143,12.901
0.714,6.29774,69.0032,-86.1827,-4.44841e-05,-1.87433e-05,4.71597e-05,2.08539,11.5491,-7.09903,-7.45841,30.0066,13.5249
0.715,3.17751,68.487,-79.7003,-9.11819e-05,-3.8285e-05,9.51123e-05,2.00629,11.7818,-7.32313,-7.38368,29.6451,14.1994
0.716,-0.296241,66.9133,-73.3384,-0.000153086,-6.4201e-05,0.000158808,1.83371,12.0028,-7.57049,-7.22341,29.1273,14.9018
0.717,-3.65571,63.957,-66.8715,-0.000228654,-9.58472e-05,0.000236676,1.57241,12.1967,-7.8257,-6.99141,28.4557,15.5836
0.718,-6.44436,59.5026,-60.0805,-0.000312391,-0.000130921,0.000323042,1.23102,12.3489,-8.07347,-6.70792,27.637,16.182
0.719,-8.33396,53.6166,-52.7917,-0.000393048,-0.000164709,0.000406278,0.81948,12.4473,-8.30162,-6.39537,26.6819,16.6378
0.72,-9.18896,46.4923,-44.932,-0.000451688,-0.000189275,0.000466805,0.346833,12.4839,-8.50402,-6.07463,25.6039,16.9116
0.721,-9.05773,38.4507,-36.6033,-0.000459932,-0.000192726,0.000475283,-0.18006,12.456,-8.68187,-5.7625,24.4169,16.9929
0.722,-8.13149,29.9917,-28.1537,-0.000378856,-0.00015875,0.000391473,-0.756894,12.3662,-8.84244,-5.47047,23.1331,16.9014
0.723,-6.70287,21.7857,-20.1497,-0.000159269,-6.67336e-05,0.000164527,-1.38155,12.2226,-8.99582,-5.20508,21.7617,16.6805
0.724,-5.09351,14.5052,-13.1756,0.000255675,0.000107145,-0.000264313,-2.05332,12.0364,-9.15105,-4.96878,20.3102,16.3882
0.725,-3.56094,8.58993,-7.59502,0.000924344,0.000387344,-0.000955376,-2.77199,11.8205,-9.31321,-4.76051,18.7872,16.0887
0.726,-2.25523,4.16477,-3.48092,0.00189565,0.00079436,-0.00195922,-3.53675,11.5874,-9.4829,-4.57497,17.2075,15.8436
0.727,-1.23563,1.12398,-0.700506,0.00319191,0.00133755,-0.0032989,-4.34521,11.348,-9.65787,-4.4012,15.5978,15.6994
0.728,-0.502091,-0.758335,0.981616,0.00478455,0.00200493,-0.0049449,-5.19267,11.1106,-9.83579,-4.22198,13.9996,15.6738
0.729,-0.0204809,-1.75016,1.83172,0.00656243,0.00274994,-0.00678235,-6.07214,10.8811,-10.0163,-4.01582,12.4669,15.7473
0.73,0.258863,-2.11175,2.1021,0.00829384,0.00347547,-0.00857177,-6.97496,10.663,-10.2016,-3.7608,11.058,15.8636
0.731,0.38861,-2.06787,2.00694,0.00958536,0.00401667,-0.00990658,-7.8919,10.4583,-10.3947,-3.43801,9.82339,15.9423
0.732,0.416876,-1.7961,1.71294,0.00984401,0.00412505,-0.0101739,-8.81405,10.268,-10.5982,-3.03316,8.79326,15.8975
0.733,0.383425,-1.42571,1.33968,0.00825256,0.00345817,-0.0085291,-9.73319,10.0924,-10.8128,-2.53744,7.97193,15.6573
0.734,0.318479,-1.04277,0.965356,0.00377329,0.00158117,-0.00389973,-10.6418,9.93126,-11.0383,-1.94886,7.34003,15.1813
0.735,0.243167,-0.698273,0.63504,-0.00479987,-0.00201135,0.00496072,-11.533,9.78376,-11.2749,-1.27434,6.86399,14.4698
0.736,0.170875,-0.416953,0.369412,-0.0187156,-0.00784264,0.0193428,-12.4008,9.6487,-11.5249,-0.53116,6.50727,13.5647
0.737,0.108938,-0.205497,0.172646,-0.039038,-0.0163586,0.0403462,-13.2412,9.52481,-11.7931,0.254058,6.23801,12.5397
0.738,0.060339,-0.0594193,0.0389309,-0.0662892,-0.027778,0.0685106,-14.0519,9.41105,-12.086,1.04969,6.03172,11.4846
0.739,0.0252031,0.0316525,-0.0425901,-0.0999404,-0.0418792,0.103289,-14.8342,9.3068,-12.4101,1.82484,5.87099,10.4835
0.74,0.00199678,0.0802406,-0.0843829,-0.137745,-0.057721,0.142361,-15.5922,9.21163,-12.7696,2.55346,5.74353,9.59666
0.741,-0.0115838,0.0986097,-0.0983512,-0.174934,-0.0733048,0.180796,-16.3335,9.12515,-13.1656,3.21535,5.63967,8.8514
0.742,-0.0180108,0.0974142,-0.0946564,-0.203341,-0.0852085,0.210155,-17.0685,9.04691,-13.5962,3.79542,5.55085,8.24496
0.743,-0.0195588,0.0851127,-0.0812466,-0.210583,-0.0882431,0.21764,-17.8087,8.97656,-14.0574,4.28283,5.47101,7.75485
0.744,-0.0181168,0.0678924,-0.06385,-0.179511,-0.0752225,0.185526,-18.5659,8.91417,-14.5455,4.67063,5.4008,7.34881
0.745,-0.0151278,0.049897,-0.0462353,-0.0882429,-0.0369775,0.0912,-19.3496,8.86068,-15.0591,4.95543,5.35319,6.99075
0.746,-0.0116057,0.0336016,-0.0305953,0.0887956,0.0372091,-0.0917711,-20.1649,8.8183,-15.5998,5.13744,5.35825,6.64324
0.747,-0.00819691,0.0202264,-0.0179553,0.378301,0.158524,-0.390979,-21.0104,8.79087,-16.1712,5.22149,5.46544,6.26845
0.748,-0.00525977,0.0101248,-0.0085472,0.803386,0.336653,-0.830308,-21.8765,8.78408,-16.7775,5.21938,5.74165,5.82887
0.749,-0.00294396,0.00310974,-0.00211896,1.37613,0.576657,-1.42225,-22.7449,8.80537,-17.4213,5.15382,6.26289,5.28938
0.75,-0.00126149,-0.00129433,0.0018296,2.08693,0.874513,-2.15687,-23.5901,8.86345,-18.1017,5.06263,7.09843,4.62136
0.751,-0.000143746,-0.00367213,0.0038817,2.89046,1.21122,-2.98732,-24.3827,8.96743,-18.8144,5.00143,8.28921,3.80914
0.752,0.000516038,-0.00460144,0.00459876,3.68862,1.54569,-3.81223,-25.0933,9.12589,-19.5534,5.04277,9.8269,2.85757
0.753,0.000833855,-0.00458714,0.00446275,4.31197,1.8069,-4.45646,-25.6973,9.34599,-20.3142,5.27,11.6429,1.79722
0.754,0.000917167,-0.00403202,0.00385248,4.55369,1.90819,-4.70629,-26.1784,9.6328,-21.0951,5.76595,13.6146,0.683764
0.755,0.000855718,-0.00323213,0.00304228,4.31197,1.8069,-4.45646,-26.5303,9.98852,-21.8954,6.59822,15.5898,-0.409956
0.756,0.000718363,-0.0023869,0.00221372,3.68862,1.54569,-3.81223,-26.7572,10.4118,-22.7128,7.8044,17.4196,-1.40702
0.757,0.000553744,-0.00161637,0.00147338,2.89046,1.21122,-2.98732,-26.8731,10.8972,-23.5413,9.38091,18.9882,-2.23941
0.758,0.000393077,-0.000980679,0.000872017,2.08693,0.874513,-2.15687,-26.8993,11.4354,-24.3719,11.2784,20.2298,-2.8568
0.759,0.00025384,-0.000498307,0.000422244,1.37613,0.576657,-1.42225,-26.8621,12.0134,-25.1935,13.4047,21.1318,-3.23058
0.76,0.000143526,-0.000161613,0.000113239,0.803386,0.336653,-0.830308,-26.7898,12.6158,-25.9944,15.6335,21.7274,-3.35506
0.761,6.29981e-05,5.11694e-05,-7.79978e-05,0.378301,0.158524,-0.390979,-26.7103,13.2264,-26.7623,17.8186,22.0826,-3.24667
0.762,9.19976e-06,0.000167335,-0.000178721,0.0887956,0.0372091,-0.0917711,-26.6486,13.8292,-27.4853,19.8102,22.2802,-2.94036
0.763,-2.28122e-05,0.000214108,-0.000215375,-0.0882429,-0.0369775,0.0912,-26.6238,14.4102,-28.1524,21.4718,22.4041,-2.48314
0.764,-3.84778e-05,0.000215432,-0.000210781,-0.179511,-0.0752225,0.185526,-26.6481,14.9583,-28.7554,22.6945,22.5252,-1.92525
0.765,-4.28752e-05,0.00019052,-0.000182942,-0.210583,-0.0882431,0.21764,-26.7249,15.4671,-29.2907,23.4068,22.6924,-1.31121
0.766,-4.02706e-05,0.000153583,-0.000144939,-0.203341,-0.0852085,0.210155,-26.849,15.9367,-29.7607,23.5787,22.9279,-0.672834
0.767,-3.39569e-05,0.00011427,-0.000105454,-0.174934,-0.0733048,0.180796,-27.0082,16.3746,-30.1728,23.2202,23.2292,-0.0256461
0.768,-2.62768e-05,7.84623e-05,-6.9607e-05,-0.137745,-0.057721,0.142361,-27.1846,16.7965,-30.5362,22.3751,23.5773,0.631064
0.769,-1.87508e-05,4.91733e-05,-3.98626e-05,-0.0999404,-0.0418792,0.103289,-27.3579,17.2249,-30.8584,21.1123,23.9469,1.31063
0.77,-1.22477e-05,2.73956e-05,-1.68906e-05,-0.0662892,-0.027778,0.0685106,-27.5075,17.6874,-31.1438,19.5155,24.3175,2.03103
0.771,-7.16002e-06,1.28133e-05,-2.91663e-07,-0.039038,-0.0163586,0.0403462,-27.6156,18.2141,-31.3938,17.6717,24.6796,2.80323
0.772,-3.56e-06,4.3443e-06,1.08304e-05,-0.0187156,-0.00784264,0.0193428,-27.67,18.8332,-31.6094,15.6606,25.0347,3.62132
0.773,-1.3245e-06,5.14062e-07,1.74464e-05,-0.00479987,-0.00201135,0.00496072,-27.6656,19.569,-31.7931,13.5463,25.3913,4.46153
0.774,-2.25509e-07,-3.16652e-07,2.03152e-05,0.00377328,0.00158116,-0.00389973,-27.6056,20.4381,-31.9503,11.3748,25.7604,5.28958
0.775,1.18067e-08,1.63114e-07,1.98107e-05,0.00825256,0.00345817,-0.0085291,-27.5025,21.4473,-32.089,9.17565,26.1526,6.07027
0.776,-3.21504e-07,2.55952e-07,1.5846e-05,0.00984401,0.00412505,-0.0101739,-27.3769,22.591,-32.2197,6.96682,26.577,6.77447
0.777,-9.27628e-07,-1.7348e-06,7.88763e-06,0.00958536,0.00401667,-0.00990658,-27.256,23.8498,-32.3536,4.75952,27.0404,7.38264
0.778,-1.49743e-06,-7.48637e-06,-4.9407e-06,0.00829384,0.00347547,-0.00857177,-27.1713,25.1901,-32.5011,2.56255,27.5463,7.88568
0.779,-1.6993e-06,-1.85866e-05,-2.36499e-05,0.00656244,0.00274994,-0.00678235,-27.1551,26.5647,-32.671,0.385398,28.0936,8.28431
0.78,-1.16913e-06,-3.63722e-05,-4.9056e-05,0.00478457,0.00200493,-0.0049449,-27.2381,27.9146,-32.8695,-1.75997,28.6778,8.58722
0.781,4.90126e-07,-6.16375e-05,-8.13077e-05,0.00319193,0.00133755,-0.0032989,-27.4463,29.1727,-33.1012,-3.85851,29.2917,8.80829
0.782,3.69047e-06,-9.41855e-05,-0.000119256,0.00189569,0.000794373,-0.00195921,-27.7985,30.2693,-33.3694,-5.89263,29.9274,8.96305
0.783,8.81273e-06,-0.000132205,-0.000159672,0.000924397,0.000387361,-0.000955374,-28.3046,31.1372,-33.6743,-7.84359,30.5771,9.06527
0.784,1.61228e-05,-0.000171488,-0.000196346,0.00025574,0.000107166,-0.000264311,-28.9649,31.7179,-34.0115,-9.69331,31.2341,9.12499
0.785,2.56415e-05,-0.000204545,-0.00021917,-0.000159195,-6.67095e-05,0.00016453,-29.7707,31.9671,-34.3713,-11.4261,31.8928,9.14832
0.786,3.69638e-05,-0.00021972,-0.00021335,-0.000378783,-0.000158726,0.000391476,-30.7057,31.8581,-34.7402,-13.0299,32.5482,9.13848
0.787,4.90286e-05,-0.000200523,-0.00015903,-0.000459875,-0.000192707,0.000475286,-31.7473,31.3856,-35.1037,-14.4971,33.1952,9.09728
0.788,5.98516e-05,-0.000125457,-3.16758e-05,-0.00045167,-0.000189269,0.000466806,-32.8681,30.5657,-35.4483,-15.8248,33.8282,9.02666
0.789,6.62517e-05,3.1243e-05,0.000196272,-0.000393102,-0.000164727,0.000406276,-34.0375,29.4357,-35.764,-17.0139,34.4412,8.92993
0.79,6.36229e-05,0.000297433,0.000551916,-0.000312561,-0.000130977,0.000323036,-35.2229,28.0507,-36.0454,-18.0672,35.0283,8.81286
0.791,4.58325e-05,0.000698845,0.00105592,-0.000228988,-9.5957e-05,0.000236664,-36.3906,26.4795,-36.2907,-18.9872,35.584,8.68407
0.792,5.36275e-06,0.00125218,0.00171349,-0.000153637,-6.43819e-05,0.000158788,-37.5071,24.7996,-36.5013,-19.7743,36.1038,8.55475
0.793,-6.61572e-05,0.001955,0.0025018,-9.19964e-05,-3.8552e-05,9.50823e-05,-38.5418,23.0912,-36.6807,-20.4264,36.5851,8.43771
0.794,-0.000176847,0.00277204,0.00335406,-4.55878e-05,-1.91048e-05,4.71185e-05,-39.4681,21.4309,-36.8336,-20.9396,37.0272,8.34615
0.795,-0.000332706,0.0036183,0.00414083,-1.34701e-05,-5.64561e-06,1.39239e-05,-40.265,19.886,-36.9647,-21.3093,37.4314,8.29213
0.796,-0.000534804,0.00433988,0.00465057,6.60162e-06,2.76641e-06,-6.82208e-06,-40.9184,18.509,-37.0769,-21.5313,37.8004,8.2847
0.797,-0.000775412,0.00469498,0.00457278,1.73543e-05,7.27418e-06,-1.79381e-05,-41.4216,17.3342,-37.1703,-21.6028,38.137,8.32805
0.798,-0.0010331,0.00433902,0.00348924,2.14669e-05,9.00045e-06,-2.21931e-05,-41.7758,16.3763,-37.2422,-21.5239,38.443,8.42027
0.799,-0.00126707,0.00282014,0.00088113,2.12711e-05,8.92253e-06,-2.19976e-05,-41.9901,15.6299,-37.2874,-21.2982,38.7179,8.5531
0.8,-0.00141126,-0.000406432,-0.00383781,1.86215e-05,7.8175e-06,-1.92681e-05,-42.0801,15.0716,-37.2999,-20.9345,38.9584,8.71305
0.801,-0.0013694,-0.00593406,-0.0112495,1.48769e-05,6.25455e-06,-1.54089e-05,-42.0663,14.6624,-37.2727,-20.4462,39.1605,8.88375
0.802,-0.00101262,-0.0143176,-0.0218078,1.09494e-05,4.61526e-06,-1.13616e-05,-41.9716,14.352,-37.1996,-19.8506,39.3204,9.04885
0.803,-0.000182099,-0.02593,-0.0356494,7.38542e-06,3.12752e-06,-7.68945e-06,-41.8176,14.084,-37.0761,-19.1667,39.437,9.19493
0.804,0.00130017,-0.0407501,-0.0523312,4.45623e-06,1.90323e-06,-4.66999e-06,-41.6224,13.802,-36.9013,-18.4142,39.5117,9.31394
0.805,0.00360864,-0.0580763,-0.070494,2.24269e-06,9.7374e-07,-2.38263e-06,-41.3972,13.4558,-36.6789,-17.6124,39.5483,9.40418
0.806,0.0068754,-0.0761683,-0.087466,7.06635e-07,3.19671e-07,-7.82285e-07,-41.146,13.0081,-36.4175,-16.7807,39.5519,9.46942
0.807,0.0111315,-0.0918407,-0.0988475,-2.53943e-07,-1.05817e-07,2.43548e-07,-40.8647,12.4388,-36.1293,-15.9389,39.5275,9.51697
0.808,0.0162257,-0.100055,-0.0981457,-7.65619e-07,-3.60298e-07,8.33802e-07,-40.5414,11.747,-35.8285,-15.1063,39.4785,9.55599
0.809,0.0217213,-0.0935932,-0.076573,-9.54244e-07,-5.00843e-07,1.12678e-06,-40.1582,10.9509,-35.5289,-14.3023,39.4062,9.59564
0.81,0.0267755,-0.0629468,-0.0231734,-9.30735e-07,-5.77024e-07,1.24383e-06,-39.6936,10.0846,-35.2424,-13.5445,39.3106,9.64317
0.811,0.0300138,0.00340862,0.0745086,-7.85038e-07,-6.26827e-07,1.28065e-06,-39.1266,9.19279,-34.9776,-12.8485,39.1916,9.70223
0.812,0.0294222,0.118112,0.228954,-5.856e-07,-6.74296e-07,1.30314e-06,-38.4402,8.32424,-34.7394,-12.2265,39.0493,9.77284
0.813,0.0222921,0.293122,0.450101,-3.82121e-07,-7.28009e-07,1.34573e-06,-37.6251,7.52401,-34.5285,-11.6859,38.8852,9.85283
0.814,0.00526836,0.536728,0.741401,-2.09875e-07,-7.79795e-07,1.41041e-06,-36.6817,6.82692,-34.3426,-11.2296,38.7007,9.93969
0.815,-0.0254332,0.849128,1.09431,-9.43034e-08,-8.03507e-07,1.46558e-06,-35.6222,6.25278,-34.1776,-10.8559,38.4975,10.0317
0.816,-0.0735577,1.2164,1.4812,-5.4957e-08,-7.54069e-07,1.44492e-06,-34.47,5.80423,-34.0288,-10.5592,38.277,10.1278
0.817,-0.142006,1.60295,1.84695,-1.08113e-07,-5.67441e-07,1.24681e-06,-33.2581,5.4671,-33.8925,-10.3307,38.0412,10.2278
0.818,-0.23161,1.94286,2.10011,-2.67547e-07,-1.62638e-07,7.36082e-07,-32.0257,5.21332,-33.7666,-10.1587,37.7926,10.3315
0.819,-0.339428,2.13119,2.10492,-5.43047e-07,5.52658e-07,-2.49368e-07,-30.8148,5.00558,-33.6497,-10.0297,37.5343,10.4373
0.82,-0.456568,2.01681,1.67681,-9.36353e-07,1.67095e-06,-1.88399e-06,-29.6659,4.80266,-33.5398,-9.93059,37.2692,10.5412
0.821,-0.565631,1.39965,0.584492,-1.43432e-06,3.26609e-06,-4.32804e-06,-28.6146,4.56479,-33.4335,-9.85104,37.0003,10.6361
0.822,-0.638028,0.0359947,-1.43656,-1.99936e-06,5.36473e-06,-7.68518e-06,-27.6882,4.25839,-33.326,-9.78433,36.7299,10.7132
0.823,-0.631642,-2.34324,-4.65383,-2.55761e-06,7.90654e-06,-1.19408e-05,-26.9034,3.85994,-33.2109,-9.72801,36.4599,10.7636
0.824,-0.489554,-5.99548,-9.28452,-2.98583e-06,1.06931e-05,-1.68792e-05,-26.2641,3.3586,-33.0807,-9.6835,36.1916,10.7802
0.825,-0.140908,-11.1045,-15.4133,-3.09918e-06,1.33275e-05,-2.19809e-05,-25.7605,2.75709,-32.9269,-9.65511,35.9259,10.758
0.826,0.494705,-17.6878,-22.8767,-2.64288e-06,1.51502e-05,-2.63073e-05,-25.3699,2.07147,-32.7389,-9.64884,35.663,10.6944
0.827,1.48195,-25.5239,-31.1926,-1.29258e-06,1.51825e-05,-2.83859e-05,-25.0594,1.32976,-32.5039,-9.67099,35.4026,10.589
0.828,2.80965,-34.2259,-39.7105,1.33036e-06,1.20929e-05,-2.61213e-05,-24.7895,0.569965,-32.2053,-9.72644,35.1434,10.4432
0.829,4.35637,-43.452,-47.9535,5.62082e-06,4.21348e-06,-1.67704e-05,-24.519,-0.162536,-31.8219,-9.81681,34.8838,10.2585
0.83,5.94426,-53.0399,-55.8577,1.19201e-05,-1.03637e-05,2.96841e-06,-24.2098,-0.818054,-31.3279,-9.9389,34.6223,10.036
0.831,7.41937,-62.9499,-63.7708,2.04059e-05,-3.35678e-05,3.66827e-05,-23.8309,-1.34555,-30.6947,-10.084,34.358,9.77575
0.832,8.68053,-73.1248,-72.2982,3.0934e-05,-6.69653e-05,8.7714e-05,-23.3626,-1.6953,-29.8961,-10.2394,34.0906,9.47706
0.833,9.67054,-83.4219,-82.0994,4.28304e-05,-0.000111166,0.000158283,-22.7981,-1.82155,-28.9176,-10.3919,33.8202,9.14153
0.834,10.3457,-93.6704,-93.7348,5.46396e-05,-0.000164993,0.0002482,-22.1446,-1.68609,-27.77,-10.5323,33.5463,8.77686
0.835,10.6227,-103.773,-107.65,6.38481e-05,-0.000224398,0.000353123,-21.422,-1.26327,-26.5026,-10.6553,33.2685,8.39837
0.836,10.3563,-113.727,-124.278,6.66238e-05,-0.000281188,0.000462389,-20.6596,-0.546717,-25.211,-10.7577,32.9862,8.02558
0.837,9.39118,-123.581,-144.166,5.76355e-05,-0.000321653,0.000556549,-19.8939,0.443537,-24.0336,-10.8358,32.6985,7.67576
0.838,7.64176,-133.409,-168.038,3.00503e-05,-0.000325334,0.000604911,-19.1668,1.65631,-23.1319,-10.8843,32.4041,7.35946
0.839,5.12368,-143.318,-196.747,-2.41597e-05,-0.000264273,0.000563589,-18.5273,3.00999,-22.6555,-10.8979,32.1009,7.07964
0.84,1.91325,-153.407,-231.049,-0.000113436,-0.000103269,0.000374849,-18.0327,4.39951,-22.6979,-10.871,31.7861,6.83344
0.841,-1.92939,-163.665,-271.248,-0.00024519,0.000198175,-3.11522e-05,-17.7482,5.70863,-23.2598,-10.7997,31.4572,6.61548
0.842,-6.4307,-173.862,-316.854,-0.000423503,0.000681376,-0.000730841,-17.7422,6.82605,-24.2417,-10.6816,31.112,6.42128
0.843,-11.747,-183.545,-366.512,-0.000645819,0.0013805,-0.00179624,-18.0765,7.66447,-25.4741,-10.5161,30.7492,6.24931
0.844,-18.1633,-192.15,-418.316,-0.000898568,0.00231021,-0.0032768,-18.7983,8.17952,-26.7677,-10.3042,30.3685,6.10067
0.845,-26.0502,-199.178,-470.32,-0.00115184,0.00344817,-0.00517239,-19.9357,8.38254,-27.9533,-10.048,29.9704,5.97732
0.846,-35.7999,-204.326,-520.969,-0.00135349,0.00471236,-0.00739678,-21.5019,8.34081,-28.8881,-9.75074,29.5561,5.88037
0.847,-47.7533,-207.509,-569.283,-0.00142355,0.00593397,-0.00973178,-23.5053,8.16337,-29.4459,-9.41658,29.1278,5.80892
0.848,-62.1373,-208.778,-614.845,-0.00125021,0.00682818,-0.011775,-25.9628,7.97796,-29.5191,-9.05076,28.6889,5.76007
0.849,-79.0236,-208.216,-657.653,-0.000689477,0.00696754,-0.0128869,-28.9133,7.90688,-29.0418,-8.66007,28.2441,5.72985
0.85,-98.2724,-205.874,-697.954,0.000428768,0.00576509,-0.0121485,-32.4271,8.04712,-28.0173,-8.25334,27.7994,5.71422
0.851,-119.419,-201.707,-736.129,0.0022848,0.00247821,-0.00834516,-36.608,8.45607,-26.5338,-7.84177,27.362,5.70955
0.852,-141.564,-195.545,-772.712,0.00503915,-0.00375248,4.64312e-07,-41.5847,9.14277,-24.7703,-7.43908,26.9394,5.71297
0.853,-163.353,-187.134,-808.424,0.0087848,-0.0138112,0.0145157,-47.4904,10.0651,-22.9954,-7.06102,26.5389,5.72284
0.854,-183.04,-176.267,-844.052,0.0134779,-0.0284422,0.0367517,-54.4272,11.1338,-21.554,-6.72409,26.1672,5.73902
0.855,-198.583,-162.954,-880.172,0.0188455,-0.0479917,0.0678053,-62.4212,12.2252,-20.8267,-6.44387,25.8294,5.76234
0.856,-207.793,-147.586,-916.877,0.0242735,-0.0720417,0.107756,-71.3783,13.2021,-21.1633,-6.23344,25.5281,5.79377
0.857,-208.605,-130.992,-953.681,0.0286808,-0.0989325,0.154895,-81.0589,13.9444,-22.8211,-6.10229,25.2635,5.8339
0.858,-199.39,-114.346,-989.644,0.0303989,-0.125188,0.204765,-91.0769,14.3814,-25.9195,-6.05547,25.0336,5.88331
0.859,-179.241,-98.9318,-1023.61,0.0270834,-0.144894,0.24904,-100.917,14.5165,-30.4022,-6.09318,24.8345,5.94254
0.86,-148.155,-85.9291,-1054.42,0.0157007,-0.149121,0.274405,-109.966,14.4342,-36.0081,-6.21086,24.6615,6.01136
0.861,-107.115,-76.3168,-1081.09,-0.00735281,-0.125552,0.26162,-117.551,14.2872,-42.2745,-6.4,24.5099,6.0878
0.862,-58.11,-70.8996,-1102.93,-0.0459245,-0.058523,0.185131,-122.985,14.2669,-48.5934,-6.64953,24.3747,6.16803
0.863,-4.08711,-70.3561,-1119.81,-0.103488,0.0701945,0.0137066,-125.613,14.5713,-54.3121,-6.94746,24.2512,6.24747
0.864,51.1802,-75.1984,-1132.28,-0.182148,0.279514,-0.28729,-124.863,15.3766,-58.833,-7.28189,24.1349,6.32224
0.865,103.382,-85.6047,-1141.57,-0.281187,0.585617,-0.751234,-120.285,16.8191,-61.6634,-7.64151,24.0221,6.39016
0.866,148.163,-101.201,-1149.2,-0.395135,0.996579,-1.40238,-111.601,18.9859,-62.4238,-8.01549,23.9098,6.45107
0.867,181.741,-120.922,-1156.53,-0.511386,1.5047,-2.2441,-98.7424,21.9206,-60.8713,-8.39353,23.7958,6.50656
0.868,201.462,-143.03,-1164.28,-0.607534,2.07644,-3.24273,-81.9005,25.646,-56.9567,-8.76596,23.6791,6.5593
0.869,206.153,-165.32,-1172.48,-0.648781,2.64027,-4.3072,-61.5585,30.1932,-50.8765,-9.12386,23.559,6.61197
0.87,196.164,-185.483,-1180.82,-0.585986,3.07343,-5.26545,-38.5235,35.6244,-43.0789,-9.45899,23.4351,6.66656
0.871,173.172,-201.568,-1189.26,-0.355255,3.18949,-5.84023,-13.9439,42.0294,-34.2156,-9.7639,23.3066,6.72383
0.872,139.898,-212.406,-1198.3,0.114137,2.76908,-5.69876,10.7149,49.4796,-25.0552,-10.0321,23.1721,6.78287
0.873,99.854,-217.833,-1208.88,0.876415,1.67707,-4.65223,33.7729,57.9302,-16.3878,-10.2588,23.0305,6.84077
0.874,57.0892,-218.627,-1221.75,1.94587,-0.047127,-2.80146,53.5388,67.095,-8.93207,-10.4408,22.8804,6.89312
0.875,15.8673,-216.216,-1236.96,3.289,-2.24127,-0.421694,68.5804,76.3577,-3.23942,-10.5773,22.7207,6.93524
0.876,-19.7686,-212.298,-1253.76,4.81523,-4.69704,2.20464,77.9826,84.7812,0.386813,-10.6692,22.5505,6.96368
0.877,-46.501,-208.553,-1271.04,6.35041,-7.14745,4.8025,81.5002,91.2373,1.91649,-10.7186,22.3687,6.97731
0.878,-62.1981,-206.471,-1287.94,7.60121,-9.20948,7.0427,79.5597,94.626,1.5459,-10.7277,22.1742,6.97772
0.879,-66.1745,-207.245,-1304.33,8.17869,-10.3883,8.52878,73.1281,94.1235,-0.387038,-10.6983,21.9656,6.9686
0.88,-59.1456,-211.613,-1320.64,7.7844,-10.2788,8.94658,63.5071,89.3795,-3.4816,-10.631,21.7413,6.95451
0.881,-42.9258,-219.656,-1337.5,6.43172,-8.85897,8.30188,52.106,80.6029,-7.33154,-10.5256,21.4993,6.93943
0.882,-20.0449,-230.665,-1355.25,4.41727,-6.50427,6.93352,40.2363,68.5132,-11.5638,-10.3817,21.2376,6.92593
0.883,6.57051,-243.203,-1373.82,2.09965,-3.70609,5.26632,28.9583,54.1862,-15.8565,-10.1999,20.9537,6.91537
0.884,33.8241,-255.431,-1392.95,-0.229245,-0.86631,3.61618,19.0006,38.8529,-19.9361,-9.98147,20.6452,6.90852
0.885,58.6532,-265.522,-1412.46,-2.32931,1.70431,2.16859,10.755,23.7036,-23.5685,-9.72933,20.3098,6.90573
0.886,78.2728,-272.014,-1432.36,-3.95758,3.71976,1.01714,4.32661,9.73559,-26.5593,-9.4474,19.9462,6.90638
0.887,90.4627,-273.989,-1452.83,-4.87941,4.92217,0.193067,-0.385945,-2.34194,-28.7642,-9.14059,19.5537,6.90854
0.888,93.8343,-271.127,-1473.98,-5.01121,5.22534,-0.32185,-3.60608,-12.1377,-30.1013,-8.81418,19.1326,6.90947
0.889,87.9969,-263.742,-1495.65,-4.5188,4.81292,-0.58485,-5.60713,-19.55,-30.5626,-8.47286,18.6839,6.90636
0.89,73.5771,-252.814,-1517.48,-3.69202,4.00183,-0.668598,-6.66211,-24.6951,-30.2164,-8.11983,18.2094,6.89651
0.891,52.0879,-239.927,-1538.91,-2.77319,3.05834,-0.638585,-7.01592,-27.8177,-29.1984,-7.75703,17.7117,6.87677
0.892,25.6666,-227.013,-1559.35,-1.91446,2.1514,-0.545179,-6.87722,-29.2072,-27.6898,-7.3861,17.1942,6.84326
0.893,-3.27223,-215.977,-1578.23,-1.19869,1.3739,-0.423743,-6.4244,-29.1403,-25.8934,-7.00918,16.6603,6.79209
0.894,-32.3412,-208.362,-1595.05,-0.659637,0.763947,-0.296509,-5.8155,-27.8552,-24.0137,-6.62922,16.1139,6.7205
0.895,-59.3286,-205.13,-1609.4,-0.29924,0.323609,-0.175303,-5.19081,-25.557,-22.2368,-6.2498,15.5588,6.62802
0.896,-82.2365,-206.564,-1621.15,-0.100921,0.033966,-0.0645465,-4.66473,-22.4428,-20.7082,-5.87467,14.9985,6.51714
0.897,-99.3635,-212.214,-1630.55,-0.0386993,-0.133763,0.0358013,-4.31396,-18.7294,-19.5129,-5.50731,14.4367,6.39324
0.898,-109.491,-220.947,-1638.26,-0.0824179,-0.210706,0.127507,-4.17308,-14.6685,-18.6641,-5.15091,13.8774,6.26384
0.899,-112.083,-231.112,-1645.25,-0.199653,-0.225808,0.211558,-4.24264,-10.5427,-18.1079,-4.8085,13.3249,6.13709
0.9,-107.373,-240.823,-1652.47,-0.355034,-0.203565,0.285885,-4.50713,-6.64029,-17.7424,-4.48327,12.7838,6.01998
0.901,-96.291,-248.287,-1660.48,-0.507783,-0.163356,0.343307,-4.95435,-3.21702,-17.4457,-4.17896,12.2585,5.91716
0.902,-80.3003,-252.064,-1669.38,-0.608377,-0.119749,0.369785,-5.58707,-0.456284,-17.1054,-3.90001,11.7524,5.8307
0.903,-61.2466,-251.221,-1679.02,-0.595384,-0.0833119,0.343175,-6.42155,1.56002,-16.6389,-3.65124,11.2673,5.76036
0.904,-41.2218,-245.439,-1689.32,-0.393735,-0.0615671,0.232848,-7.47498,2.86036,-16.0046,-3.43721,10.8035,5.70428
0.905,-22.3681,-235.083,-1700.37,0.0840276,-0.059794,0.000721709,-8.74856,3.56918,-15.2051,-3.26122,10.3594,5.65978
0.906,-6.63827,-221.191,-1712.35,0.931681,-0.0815032,-0.395533,-10.2143,3.87368,-14.2818,-3.12428,9.93259,5.62375
0.907,4.37309,-205.297,-1725.21,2.23635,-0.128437,-0.996237,-11.811,3.98191,-13.3029,-3.02449,9.51943,5.59247
0.908,9.49026,-189.15,-1738.58,4.05649,-0.20001,-1.8294,-13.4502,4.08346,-12.3484,-2.95734,9.11576,5.56197
0.909,8.0272,-174.416,-1751.68,6.38887,-0.292158,-2.89554,-15.0302,4.3205,-11.4925,-2.91652,8.71709,5.52865
0.91,-0.0435856,-162.478,-1763.71,9.12366,-0.395616,-4.14705,-16.4538,4.77249,-10.7902,-2.89471,8.31857,5.48971
0.911,-13.9279,-154.292,-1774.12,11.9881,-0.493759,-5.46246,-17.6443,5.45412,-10.2687,-2.88438,7.91471,5.4432
0.912,-32.0375,-150.238,-1782.89,14.4822,-0.560244,-6.61697,-18.5576,6.3241,-9.92576,-2.87839,7.49927,5.38783
0.913,-52.252,-150.021,-1790.4,15.9189,-0.569196,-7.29819,-19.1866,7.30207,-9.73011,-2.87055,7.06565,5.3229
0.914,-72.2657,-152.726,-1797.14,15.7611,-0.526743,-7.25576,-19.5571,8.28967,-9.62596,-2.8558,6.60746,5.24815
0.915,-89.85,-157.019,-1803.42,14.034,-0.483331,-6.4924,-19.7154,9.19095,-9.54186,-2.83039,6.11877,5.16377
0.916,-103.024,-161.397,-1809.36,11.2736,-0.501607,-5.24984,-19.7124,9.92859,-9.40527,-2.79226,5.59413,5.07079
0.917,-110.232,-164.389,-1814.93,8.09485,-0.627845,-3.8125,-19.5874,10.4542,-9.15889,-2.74171,5.02887,4.97145
0.918,-110.546,-164.752,-1820.17,4.91652,-0.890595,-2.37533,-19.3566,10.7522,-8.77302,-2.68185,4.41966,4.86883
0.919,-103.786,-161.684,-1825.14,1.95709,-1.3012,-1.03904,-19.0105,10.8384,-8.24991,-2.61883,3.76514,4.76611
0.92,-90.5238,-154.97,-1829.99,-0.689158,-1.84716,0.155647,-18.5186,10.7524,-7.62012,-2.56142,3.06641,4.66619
0.921,-72.0148,-144.962,-1834.77,-2.98022,-2.48212,1.19543,-17.8427,10.5494,-6.93256,-2.52013,2.32721,4.5718
0.922,-50.1492,-132.44,-1839.47,-4.86143,-3.11297,2.06509,-16.952,10.2906,-6.24213,-2.50608,1.55382,4.48571
0.923,-27.3392,-118.458,-1844,-6.20951,-3.58528,2.72195,-15.838,10.0349,-5.59941,-2.52947,0.75459,4.41049
0.924,-6.25037,-104.208,-1848.29,-6.78759,-3.66962,3.0749,-14.5229,9.83296,-5.04524,-2.5977,-0.0605634,4.34793
0.925,10.6066,-90.8702,-1852.4,-6.28074,-3.09234,2.99993,-13.0605,9.72258,-4.61015,-2.71331,-0.880922,4.29857
0.926,21.291,-79.4245,-1856.44,-4.48339,-1.65578,2.4248,-11.5304,9.72669,-4.31604,-2.87235,-1.69581,4.26155
0.927,24.7009,-70.4755,-1860.61,-1.44629,0.665735,1.39305,-10.0268,9.85369,-4.17574,-3.06366,-2.49547,4.23492
0.928,20.6377,-64.179,-1865.02,2.61154,3.76937,0.016408,-8.64317,10.0982,-4.18825,-3.26942,-3.27166,4.21605
0.929,9.73407,-60.2821,-1869.71,7.42831,7.48653,-1.59295,-7.45787,10.4419,-4.33303,-3.46681,-4.01801,4.20207
0.93,-6.65802,-58.2113,-1874.65,12.6683,11.5478,-3.32036,-6.52215,10.8542,-4.56995,-3.63065,-4.72989,4.1902
0.931,-26.595,-57.1549,-1879.69,17.8067,15.4945,-5.01033,-5.8552,11.2945,-4.84576,-3.73662,-5.40397,4.17803
0.932,-47.7205,-56.1562,-1884.58,22.0622,18.639,-6.44115,-5.44595,11.7175,-5.10457,-3.76449,-6.03767,4.16365
0.933,-67.5102,-54.249,-1888.97,24.5389,20.2088,-7.35165,-5.26051,12.0803,-5.30046,-3.70083,-6.62866,4.14584
0.934,-83.5589,-50.6278,-1892.48,24.6154,19.6622,-7.52922,-5.25325,12.3503,-5.40847,-3.5408,-7.17457,4.12412
0.935,-93.8873,-44.8115,-1894.89,22.2945,16.944,-6.91539,-5.37827,12.5121,-5.42724,-3.28866,-7.67279,4.09888
0.936,-97.2435,-36.7609,-1896.15,18.2049,12.5042,-5.65475,-5.59759,12.5699,-5.37351,-2.95696,-8.1202,4.07138
0.937,-93.3282,-26.9104,-1896.41,13.2585,7.07212,-4.02469,-5.88441,12.5461,-5.27668,-2.56463,-8.51315,4.04352
0.938,-82.8287,-16.0756,-1895.86,8.26073,1.3714,-2.30071,-6.22285,12.4766,-5.17713,-2.13452,-8.84766,4.0174
0.939,-67.2365,-5.23587,-1894.68,3.75105,-3.99063,-0.685718,-6.60571,12.4065,-5.12123,-1.69071,-9.11968,3.99475
0.94,-48.5375,4.72599,-1892.98,0.058751,-8.4447,0.675604,-7.03029,12.3835,-5.14868,-1.25592,-9.32521,3.97657
0.941,-28.9054,13.1966,-1890.77,-2.60947,-11.4112,1.66816,-7.49296,12.4523,-5.27915,-0.849287,-9.46047,3.96292
0.942,-10.4878,19.8665,-1888.02,-4.16981,-12.504,2.22016,-7.9843,12.6482,-5.50718,-0.484602,-9.52211,3.95263
0.943,4.75044,24.7174,-1884.77,-4.72548,-11.8414,2.35085,-8.48713,12.9926,-5.80668,-0.169632,-9.5079,3.94357
0.944,15.2136,28.0358,-1881.17,-4.54717,-10.0144,2.17261,-8.97856,13.4914,-6.14187,0.0935767,-9.41732,3.93311
0.945,19.9015,30.4133,-1877.49,-3.93698,-7.71367,1.82293,-9.43481,14.1344,-6.48047,0.307545,-9.25181,3.9188
0.946,18.5839,32.6656,-1874.03,-3.11981,-5.46324,1.40516,-9.83707,14.8985,-6.80338,0.477601,-9.01469,3.89894
0.947,11.8376,35.6823,-1870.95,-2.22578,-3.59595,0.978448,-10.1753,15.7504,-7.10526,0.609823,-8.71101,3.87311
0.948,0.934449,40.266,-1868.18,-1.30884,-2.30478,0.56729,-10.4484,16.6516,-7.38787,0.709174,-8.34756,3.84239
0.949,-12.3793,46.9902,-1865.4,-0.368184,-1.68671,0.171809,-10.661,17.5618,-7.65408,0.778293,-7.93264,3.80897
0.95,-26.1631,56.0598,-1862.12,0.629061,-1.7734,-0.222093,-10.8196,18.4434,-7.90635,0.817147,-7.47582,3.77548
0.951,-38.5788,67.2166,-1857.91,1.72417,-2.5461,-0.63278,-10.9297,19.2649,-8.14701,0.823462,-6.98783,3.7444
0.952,-48.1405,79.7661,-1852.47,2.94164,-3.93374,-1.07292,-10.9949,20.0038,-8.37779,0.793744,-6.48032,3.71785
0.953,-53.8569,92.7297,-1845.68,4.26186,-5.79469,-1.53916,-11.0182,20.6489,-8.59834,0.724493,-5.96532,3.69749
0.954,-55.2525,105.048,-1837.57,5.59119,-7.88423,-2.00133,-11.0039,21.2008,-8.80425,0.613268,-5.45442,3.68435
0.955,-52.3214,115.763,-1828.17,6.73052,-9.81154,-2.39122,-10.9598,21.6729,-8.9857,0.459445,-4.95787,3.67864
0.956,-45.4941,124.142,-1817.52,7.38905,-11.0568,-2.60839,-10.8982,22.0881,-9.12815,0.264624,-4.48403,3.67964
0.957,-35.6258,129.768,-1805.72,7.33208,-11.1916,-2.57385,-10.8354,22.4753,-9.21562,0.0326193,-4.03915,3.68568
0.958,-23.9388,132.615,-1792.93,6.57578,-10.1905,-2.29746,-10.7881,22.863,-9.23525,-0.230831,-3.62732,3.69437
0.959,-11.8621,133.073,-1779.41,5.3799,-8.44007,-1.87214,-10.7706,23.275,-9.1808,-0.518474,-3.25033,3.70306
0.96,-0.799883,131.912,-1765.44,4.05091,-6.4274,-1.40439,-10.7925,23.7263,-9.05442,-0.822077,-2.9077,3.70909
0.961,8.09404,130.167,-1751.28,2.80383,-4.50391,-0.968025,-10.8565,24.2219,-8.86666,-1.13319,-2.59686,3.71014
0.962,14.0706,128.985,-1737.11,1.75254,-2.86102,-0.601721,-10.9585,24.7559,-8.63545,-1.44385,-2.31374,3.70469
0.963,16.8398,129.441,-1723.13,0.939147,-1.57533,-0.319374,-11.0885,25.3134,-8.38352,-1.74687,-2.05349,3.69272
0.964,16.5294,132.343,-1709.49,0.359518,-0.648301,-0.118961,-11.2318,25.8722,-8.1345,-2.03596,-1.81121,3.67575
0.965,13.5801,138.051,-1696.25,-0.0166041,-0.0380117,0.0104501,-11.371,26.4057,-7.90882,-2.30562,-1.58222,3.65622
0.966,8.63267,146.403,-1683.36,-0.230876,0.317407,0.0836092,-11.4869,26.8852,-7.72109,-2.55113,-1.36225,3.63678
0.967,2.45276,156.79,-1670.65,-0.326546,0.483912,0.115704,-11.5605,27.2837,-7.57889,-2.76838,-1.14755,3.61952
0.968,-4.12008,168.333,-1657.78,-0.342619,0.52195,0.120362,-11.5742,27.5795,-7.48225,-2.95365,-0.934998,3.60541
0.969,-10.2242,180.037,-1644.43,-0.311012,0.481591,0.10869,-11.5141,27.7589,-7.4237,-3.10349,-0.722084,3.59416
0.97,-15.0469,190.918,-1630.29,-0.255758,0.400968,0.0890205,-11.3717,27.8197,-7.38974,-3.21473,-0.506932,3.58459
0.971,-17.925,200.116,-1615.2,-0.193498,0.306809,0.067098,-11.1447,27.7713,-7.36337,-3.28482,-0.288318,3.57523
0.972,-18.4561,207.038,-1599.1,-0.134631,0.216092,0.0464939,-10.8369,27.6347,-7.3269,-3.31199,-0.0657302,3.56471
0.973,-16.5685,211.435,-1581.96,-0.0847342,0.138171,0.0291044,-10.4573,27.4392,-7.26454,-3.29561,0.160639,3.55205
0.974,-12.4921,213.418,-1563.83,-0.0459435,0.0768969,0.0156362,-10.0189,27.219,-7.16401,-3.23633,0.390079,3.53663
0.975,-6.6341,213.403,-1544.83,-0.0181631,0.0324991,0.00602846,-9.53737,27.0084,-7.01715,-3.13618,0.621605,3.51811
0.976,0.544552,212.026,-1525.19,-2.52155e-05,0.0030978,-0.000214272,-9.02805,26.8376,-6.82045,-2.9984,0.854121,3.49643
0.977,8.5707,210.047,-1505.17,0.0104062,-0.0141758,-0.00377799,-8.50392,26.7299,-6.57551,-2.82721,1.08652,3.47184
0.978,16.9349,208.253,-1485.01,0.015163,-0.0224172,-0.00537653,-7.97371,26.7004,-6.28888,-2.62762,1.31777,3.44483
0.979,25.0613,207.322,-1464.8,0.0160902,-0.0244829,-0.00565459,-7.44172,26.7558,-5.97175,-2.4052,1.54702,3.41569
0.98,32.3256,207.722,-1444.61,0.0147049,-0.0227516,-0.00514029,-6.90941,26.8962,-5.63962,-2.1659,1.77365,3.38418
0.981,38.1372,209.679,-1424.5,0.0121552,-0.0190436,-0.00423175,-6.3776,27.1157,-5.30885,-1.9157,1.99743,3.3496
0.982,42.0447,213.198,-1404.53,0.00924009,-0.0146413,-0.00320485,-5.84769,27.4041,-4.99025,-1.66074,2.21843,3.3114
0.983,43.8085,218.073,-1384.77,0.00646238,-0.0103645,-0.00223233,-5.32125,27.747,-4.6871,-1.40767,2.43685,3.26964
0.984,43.425,223.9,-1365.21,0.00409485,-0.00666986,-0.00140703,-4.79962,28.1274,-4.40122,-1.16374,2.65274,3.22514
0.985,41.1183,230.141,-1345.77,0.00224543,-0.0037504,-0.00076477,-4.28491,28.528,-4.13911,-0.93647,2.86595,3.17909
0.986,37.2814,236.196,-1326.27,0.000914387,-0.00162472,-0.000304322,-3.78158,28.9329,-3.90988,-0.732926,3.07611,3.13264
0.987,32.3807,241.461,-1306.44,4.00862e-05,-0.000208847,-3.30427e-06,-3.29712,29.3294,-3.71796,-0.559147,3.2829,3.08662
0.988,26.8984,245.362,-1285.93,-0.000467373,0.00063011,0.00017016,-2.84089,29.7086,-3.55887,-0.419581,3.48598,3.04141
0.989,21.3651,247.458,-1264.4,-0.000703415,0.00103735,0.000249607,-2.42204,30.0649,-3.42062,-0.316543,3.6849,2.99696
0.99,16.4096,247.572,-1241.67,-0.000755263,0.00114781,0.000265525,-2.04735,30.3964,-3.28818,-0.24992,3.87898,2.9529
0.991,12.7167,245.854,-1217.71,-0.000695027,0.00107447,0.00024302,-1.71974,30.7045,-3.14872,-0.217236,4.06752,2.90903
0.992,10.8943,242.728,-1192.62,-0.000577529,0.000904202,0.000201107,-1.43767,30.9946,-2.99584,-0.21394,4.25019,2.86562
0.993,11.3293,238.783,-1166.6,-0.000441118,0.000698502,0.000153032,-1.19577,31.275,-2.82964,-0.233892,4.42705,2.82319
0.994,14.1064,234.672,-1139.95,-0.000310096,0.000496956,0.000107146,-0.986164,31.5556,-2.65285,-0.270138,4.5986,2.78202
0.995,19.0222,231.034,-1112.96,-0.000197793,0.000321827,6.7989e-05,-0.799643,31.8458,-2.46758,-0.315796,4.76552,2.74188
0.996,25.6501,228.407,-1085.86,-0.000109643,0.000182766,3.73698e-05,-0.626082,32.1531,-2.27552,-0.364728,4.92871,2.70185
0.997,33.4019,227.115,-1058.82,-4.58883e-05,8.10229e-05,1.53098e-05,-0.454479,32.4808,-2.07965,-0.411977,5.08945,2.66045
0.998,41.5789,227.213,-1031.88,-3.76165e-06,1.28655e-05,8.0109e-07,-0.273369,32.8283,-1.8853,-0.454086,5.24941,2.61613
0.999,49.4221,228.509,-1005.11,2.09076e-05,-2.78556e-05,-7.63622e-06,-0.0717565,33.1914,-1.70001,-0.489224,5.41043,2.56788
1,56.1674,230.628,-978.526,3.25985e-05,-4.79471e-05,-1.15768e-05,0.159977,33.5637,-1.53194,-0.516927,5.57403,2.5154
1.001,61.099,233.06,-952.155,3.54337e-05,-5.37823e-05,-1.24623e-05,0.429612,33.9373,-1.38667,-0.537586,5.74104,2.45897
1.002,63.617,235.217,-926.009,3.28392e-05,-5.0725e-05,-1.14855e-05,0.742983,34.3033,-1.26418,-0.551914,5.91147,2.39919
1.003,63.3393,236.534,-900.132,2.74322e-05,-4.29195e-05,-9.55457e-06,1.10395,34.6519,-1.1583,-0.560567,6.08469,2.3369
1.004,60.2134,236.587,-874.607,2.10528e-05,-3.33147e-05,-7.30523e-06,1.5143,34.9725,-1.05913,-0.563912,6.25963,2.27309
1.005,54.5746,235.161,-849.501,1.4875e-05,-2.38204e-05,-5.141e-06,1.9736,35.2547,-0.956412,-0.561963,6.43493,2.20882
1.006,47.1078,232.235,-824.777,9.54957e-06,-1.55217e-05,-3.28374e-06,2.47922,35.489,-0.841681,-0.554513,6.60913,2.14511
1.007,38.7169,227.953,-800.25,5.34916e-06,-8.89975e-06,-1.8244e-06,3.02649,35.6688,-0.70848,-0.541433,6.78098,2.08287
1.008,30.3526,222.581,-775.659,2.29637e-06,-4.03138e-06,-7.67835e-07,3.60887,35.7901,-0.55135,-0.522867,6.94971,2.02259
1.009,22.8832,216.491,-750.799,2.67382e-07,-7.51664e-07,-6.88178e-08,4.2182,35.8522,-0.364966,-0.499139,7.11488,1.96412
1.01,17.0452,210.123,-725.626,-9.31067e-07,1.22363e-06,3.41288e-07,4.84509,35.8571,-0.144124,-0.470525,7.27594,1.90658
1.011,13.4234,203.93,-700.269,-1.50911e-06,2.21344e-06,5.36389e-07,5.47967,35.8087,0.115682,-0.437062,7.43207,1.84869
1.012,12.4045,198.32,-674.979,-1.66153e-06,2.51864e-06,5.84611e-07,6.11265,35.7122,0.417813,-0.398481,7.58249,1.7892
1.013,14.1077,193.612,-650.057,-1.55107e-06,2.39382e-06,5.42636e-07,6.7366,35.5726,0.764133,-0.354347,7.72702,1.72741
1.014,18.3355,189.981,-625.758,-1.30264e-06,2.03666e-06,4.53807e-07,7.34674,35.3936,1.15394,-0.30438,7.86638,1.6634
1.015,24.5744,187.408,-602.203,-1.00449e-06,1.58849e-06,3.48629e-07,7.94105,35.1776,1.58225,-0.248807,8.00183,1.59776
1.016,32.0391,185.649,-579.343,-7.1331e-07,1.14142e-06,2.46592e-07,8.51956,34.926,2.03858,-0.188659,8.13466,1.53093
1.017,39.7636,184.283,-557.039,-4.60852e-07,7.48294e-07,1.58525e-07,9.08341,34.6402,2.50695,-0.125875,8.26576,1.46302
1.018,46.7413,182.831,-535.21,-2.60755e-07,4.3305e-07,8.89913e-08,9.63343,34.3214,2.96651,-0.0631262,8.39549,1.39391
1.019,52.0866,180.887,-513.898,-1.14621e-07,2.0017e-07,3.84025e-08,10.1677,33.971,3.39276,-0.00341172,8.52382,1.3234
1.02,55.1661,178.192,-493.218,-1.69352e-08,4.24094e-08,4.73792e-09,10.679,33.5902,3.76023,0.0504142,8.65072,1.25104
1.021,55.6571,174.655,-473.264,4.12485e-08,-5.33513e-08,-1.51825e-08,11.1536,33.1796,4.04666,0.0961176,8.77651,1.17587
1.022,53.5134,170.336,-454.074,6.97834e-08,-1.02048e-07,-2.48256e-08,11.572,32.7373,4.23734,0.132425,8.90187,1.09614
1.023,48.8904,165.408,-435.663,7.78697e-08,-1.1788e-07,-2.74101e-08,11.9116,32.2579,4.32839,0.159177,9.02772,1.00962
1.024,42.1188,160.104,-418.028,7.32349e-08,-1.12928e-07,-2.56281e-08,12.15,31.733,4.32802,0.177398,9.15514,0.914102
1.025,33.7457,154.664,-401.089,6.18386e-08,-9.66171e-08,-2.1548e-08,12.2681,31.152,4.25546,0.189216,9.28541,0.807593
1.026,24.5656,149.345,-384.638,4.79137e-08,-7.572e-08,-1.66331e-08,12.2524,30.5055,4.13742,0.197455,9.4199,0.687815
1.027,15.5364,144.444,-368.367,3.4195e-08,-5.46774e-08,-1.18242e-08,12.0957,29.7884,4.00398,0.205007,9.56008,0.551809
1.028,7.58441,140.278,-351.98,2.22305e-08,-3.606e-08,-7.64954e-09,11.7981,29.0035,3.88678,0.214351,9.70734,0.396078
1.029,1.41396,137.097,-335.297,1.2701e-08,-2.10567e-08,-4.33732e-09,11.3666,28.1621,3.81868,0.227352,9.86272,0.217295
1.03,-2.57343,134.956,-318.314,5.70781e-09,-9.92001e-09,-1.91583e-09,10.8173,27.2838,3.83146,0.245234,10.0264,0.0134284
1.031,-4.25576,133.692,-301.212,1.00652e-09,-2.33425e-09,-2.95179e-10,10.1764,26.3941,3.94993,0.26872,10.1971,-0.214851
1.032,-3.73495,132.993,-284.323,-1.81649e-09,2.30549e-09,6.71809e-10,9.48023,25.5218,4.1854,0.298461,10.3713,-0.462866
1.033,-1.28926,132.506,-268.025,-3.22301e-09,4.69825e-09,1.14768e-09,8.77295,24.6972,4.53279,0.335509,10.5438,-0.721407
