timestamp,accel_x (m/s2),accel_y (m/s2),accel_z (m/s2)
0.00391563503688985,0.0239420166015625,9.97424411621094,-0.622492431640625
0.00783127007377971,0.0383072265625,9.9981861328125,-0.656011254882812
0.0117469051106696,0.01915361328125,9.99339772949219,-0.636857641601562
0.0195906521809756,-0.0047884033203125,9.98860932617187,-0.699106884765625
0.0274343992512816,-0.01915361328125,10.0125513427734,-0.656011254882812
0.0352781463215877,0.0143652099609375,9.97903251953125,-0.656011254882812
0.0431239533962374,0.028730419921875,9.96466730957031,-0.74699091796875
0.0509697604708871,-0.0239420166015625,9.96466730957031,-0.70868369140625
0.0588155675455369,-0.0143652099609375,9.97903251953125,-0.679953271484375
0.0666642147894549,0.0239420166015625,9.94072529296875,-0.718260498046875
0.074512862033373,-0.0047884033203125,9.94551369628906,-0.679953271484375
0.0823615092772911,-0.01915361328125,9.94072529296875,-0.679953271484375
0.0902695821939593,0.047884033203125,9.95030209960937,-0.703895288085937
0.0981776551106274,-0.0143652099609375,9.96945571289062,-0.608127221679687
0.106085728027296,0.0,9.96945571289062,-0.636857641601562
0.113998679633198,-0.0143652099609375,9.95509050292969,-0.608127221679687
0.121911631239101,-0.009576806640625,9.94551369628906,-0.636857641601562
0.129824582845004,-0.0430956298828125,9.96945571289062,-0.5746083984375
0.137967887206978,-0.0335188232421875,9.92636008300781,-0.641646044921875
0.146111191568953,0.0047884033203125,9.93114848632812,-0.612915625
0.154254495930928,-0.0239420166015625,9.95030209960937,-0.608127221679687
0.166473678141209,0.0143652099609375,9.93114848632812,-0.59376201171875
0.178692860351489,0.01915361328125,9.95509050292969,-0.612915625
0.19091204256177,0.0047884033203125,9.95030209960937,-0.584185205078125
0.199060733316976,-0.0047884033203125,9.90241806640625,-0.612915625
0.207209424072182,-0.009576806640625,9.90720646972656,-0.63206923828125
0.215358114827389,0.0047884033203125,9.92636008300781,-0.617704028320312
0.22350920640725,-0.028730419921875,9.94551369628906,-0.608127221679687
0.231660297987112,0.067037646484375,9.91199487304687,-0.550666381835937
0.239811389566974,-0.028730419921875,9.93114848632812,-0.584185205078125
0.247965489935891,0.0,9.97424411621094,-0.603338818359375
0.256119590304808,0.028730419921875,9.93114848632812,-0.641646044921875
0.264273690673726,0.0047884033203125,9.9215716796875,-0.646434448242187
0.276587616970374,0.0430956298828125,9.93114848632812,-0.679953271484375
0.288901543267023,0.047884033203125,9.96945571289062,-0.67037646484375
0.301215469563672,0.05746083984375,9.95030209960937,-0.646434448242187
0.309442700683457,0.0239420166015625,9.9215716796875,-0.636857641601562
0.317669931803242,0.028730419921875,9.92636008300781,-0.622492431640625
0.325897162923027,0.047884033203125,9.94551369628906,-0.565031591796875
0.388901210123526,0.0047884033203125,9.94072529296875,-0.5746083984375
0.451905257324024,-0.0239420166015625,9.94551369628906,-0.598550415039062
0.514909304524522,-0.0047884033203125,9.9215716796875,-0.579396801757812
0.52344641411653,0.009576806640625,9.91199487304687,-0.608127221679687
0.531983523708538,0.0047884033203125,9.93593688964844,-0.565031591796875
0.540520633300545,-0.009576806640625,9.93114848632812,-0.598550415039062
0.549060288356965,-0.01915361328125,9.92636008300781,-0.6512228515625
0.557599943413384,0.028730419921875,9.94551369628906,-0.55545478515625
0.566139598469803,-0.01915361328125,9.94551369628906,-0.622492431640625
0.574681419216323,0.009576806640625,9.96466730957031,-0.536301171875
0.583223239962843,-0.009576806640625,9.98860932617187,-0.584185205078125
0.591765060709363,0.0047884033203125,9.95509050292969,-0.531512768554687
0.600308620822209,-0.0143652099609375,9.97903251953125,-0.612915625
0.608852180935055,0.0239420166015625,9.97903251953125,-0.531512768554687
0.617395741047901,0.0239420166015625,9.97424411621094,-0.4979939453125
0.625941085448938,0.028730419921875,9.97903251953125,-0.545877978515625
0.634486429849976,0.028730419921875,10.0029745361328,-0.512359155273437
0.643031774251014,0.0239420166015625,10.0077629394531,-0.579396801757812
0.690041207980381,-0.0383072265625,9.95509050292969,-0.565031591796875
0.737050641709748,-0.028730419921875,9.95030209960937,-0.627280834960937
0.784060075439115,-0.0047884033203125,9.96945571289062,-0.665588061523437
0.83229395735642,0.028730419921875,9.98382092285156,-0.603338818359375
0.880527839273725,0.01915361328125,9.97424411621094,-0.63206923828125
0.92876172119103,-0.0047884033203125,9.95509050292969,-0.603338818359375
0.937842008951442,0.009576806640625,10.0029745361328,-0.641646044921875
0.946922296711854,0.028730419921875,9.98860932617187,-0.636857641601562
0.956002584472266,0.0239420166015625,9.97903251953125,-0.5746083984375
0.965085150661497,0.0047884033203125,9.96466730957031,-0.545877978515625
0.974167716850727,0.009576806640625,9.95509050292969,-0.608127221679687
0.983250283039958,-0.01915361328125,9.93593688964844,-0.55545478515625
0.992334382757839,-0.028730419921875,9.95509050292969,-0.584185205078125
1.00141848247572,-0.0335188232421875,9.97424411621094,-0.63206923828125
1.0105025821936,-0.0239420166015625,9.95987890625,-0.617704028320312
1.01989475081339,-0.01915361328125,9.93593688964844,-0.565031591796875
1.02928691943318,-0.009576806640625,9.98860932617187,-0.5746083984375
1.03867908805297,0.01915361328125,9.98382092285156,-0.560243188476563
1.04807354150349,0.0,9.94551369628906,-0.569819995117188
1.05746799495401,-0.0047884033203125,9.96945571289062,-0.608127221679687
1.06686244840453,0.0335188232421875,9.97903251953125,-0.5746083984375
1.07625848486285,0.01915361328125,9.95987890625,-0.588973608398437
1.08565452132118,0.0239420166015625,9.95030209960937,-0.579396801757812
1.09505055777951,0.0143652099609375,9.95987890625,-0.665588061523437
1.1890192690425,-0.009576806640625,9.95509050292969,-0.608127221679687
1.28298798030549,-0.0383072265625,9.9981861328125,-0.584185205078125
1.37695669156849,-0.01915361328125,9.98860932617187,-0.646434448242187
1.42864797517849,-0.0143652099609375,9.95987890625,-0.641646044921875
1.4803392587885,0.0383072265625,9.95509050292969,-0.536301171875
1.53203054239851,0.028730419921875,9.99339772949219,-0.608127221679687
1.54150143367455,0.0383072265625,9.93114848632812,-0.665588061523437
1.55097232495059,0.0239420166015625,9.93593688964844,-0.598550415039062
1.56044321622662,0.01915361328125,9.9215716796875,-0.627280834960937
1.56991695928218,0.0335188232421875,9.90720646972656,-0.526724365234375
1.57939070233774,0.0143652099609375,9.96945571289062,-0.617704028320312
1.58886444539329,0.009576806640625,9.96945571289062,-0.608127221679687
1.67887471145233,-0.0526724365234375,9.93114848632812,-0.579396801757812
1.76888497751136,-0.076614453125,9.93114848632812,-0.545877978515625
1.85889524357039,-0.0383072265625,9.95987890625,-0.531512768554687
1.86837239200789,-0.076614453125,9.87847604980469,-0.6512228515625
1.87784954044539,-0.0335188232421875,9.9215716796875,-0.569819995117188
1.88732668888289,-0.0430956298828125,9.90720646972656,-0.59376201171875
1.89680558580129,-0.028730419921875,9.91199487304687,-0.608127221679687
1.90628448271969,-0.0335188232421875,9.95509050292969,-0.612915625
1.91576337963809,-0.0526724365234375,9.90720646972656,-0.675164868164063
1.92524377438634,-0.0239420166015625,9.94551369628906,-0.603338818359375
1.9347241691346,-0.01915361328125,9.95509050292969,-0.59376201171875
1.94420456388286,0.0,9.92636008300781,-0.608127221679687
1.95368640416063,0.0,9.95030209960937,-0.584185205078125
1.9631682444384,-0.0239420166015625,9.93593688964844,-0.603338818359375
1.97265008471617,-0.0143652099609375,9.97903251953125,-0.603338818359375
1.98243346839672,0.0239420166015625,9.94551369628906,-0.636857641601562
1.99221685207727,0.009576806640625,9.93593688964844,-0.63206923828125
2.00200023575783,-0.0047884033203125,9.94072529296875,-0.63206923828125
2.01178594702085,-0.0143652099609375,9.96945571289062,-0.612915625
2.02157165828387,0.009576806640625,9.95030209960937,-0.63206923828125
2.03135736954689,-0.0143652099609375,9.93114848632812,-0.718260498046875
2.04114469105296,0.01915361328125,9.92636008300781,-0.598550415039062
2.05093201255903,0.0335188232421875,9.97903251953125,-0.656011254882812
2.06071933406511,0.0143652099609375,9.94072529296875,-0.6512228515625
2.07050868378299,0.01915361328125,9.96945571289062,-0.612915625
2.08029803350087,-0.0047884033203125,9.95509050292969,-0.646434448242187
2.09008738321875,0.0047884033203125,9.95987890625,-0.641646044921875
2.09987829326649,0.0047884033203125,9.96466730957031,-0.641646044921875
2.10966920331423,0.0143652099609375,9.95509050292969,-0.660799658203125
2.11946011336197,-0.0047884033203125,9.98382092285156,-0.565031591796875
2.12925251885242,0.01915361328125,9.97424411621094,-0.63206923828125
2.13904492434287,0.028730419921875,9.97903251953125,-0.617704028320312
2.14883732983332,0.0430956298828125,9.95509050292969,-0.55545478515625
2.17821743085327,0.009576806640625,9.96466730957031,-0.67037646484375
2.20759753187322,-0.028730419921875,9.93114848632812,-0.684741674804688
2.23697763289316,0.0047884033203125,9.9215716796875,-0.660799658203125
2.29182257280743,0.009576806640625,9.9981861328125,-0.598550415039062
2.3466675127217,0.0383072265625,10.0125513427734,-0.612915625
2.40151245263596,0.0335188232421875,9.98860932617187,-0.63206923828125
2.41184286073058,0.0143652099609375,9.96945571289062,-0.622492431640625
2.42217326882519,0.0335188232421875,9.98382092285156,-0.588973608398437
2.4325036769198,0.009576806640625,9.96466730957031,-0.67037646484375
2.44284214056997,0.0383072265625,9.98382092285156,-0.660799658203125
2.45318060422013,0.0526724365234375,9.95509050292969,-0.689530078125
2.4635190678703,0.0335188232421875,9.92636008300781,-0.675164868164063
2.47385971489721,0.047884033203125,9.96466730957031,-0.665588061523437
2.48420036192412,0.0814028564453125,9.96945571289062,-0.622492431640625
2.49454100895102,0.01915361328125,10.0125513427734,-0.636857641601562
2.50488707079998,0.047884033203125,9.96466730957031,-0.641646044921875
2.51523313264893,0.0335188232421875,9.96945571289062,-0.579396801757812
2.52557919449789,0.0383072265625,9.92636008300781,-0.646434448242187
2.53592725135552,0.0430956298828125,9.96945571289062,-0.679953271484375
2.54627530821315,0.0,9.95030209960937,-0.622492431640625
2.55662336507078,0.009576806640625,9.93593688964844,-0.665588061523437
2.56697305419839,0.0047884033203125,9.96466730957031,-0.612915625
2.57732274332599,0.0047884033203125,9.94072529296875,-0.6512228515625
2.58767243245359,-0.0239420166015625,9.94551369628906,-0.622492431640625
2.66530138783009,0.0430956298828125,9.97903251953125,-0.565031591796875
2.74293034320659,0.0047884033203125,9.95987890625,-0.584185205078125
2.82055929858308,0.0,9.97424411621094,-0.608127221679687
2.90397407891073,0.0047884033203125,9.97903251953125,-0.608127221679687
2.98738885923838,0.0,9.97424411621094,-0.612915625
3.07080363956603,-0.028730419921875,9.97903251953125,-0.617704028320312
3.0812916735287,0.047884033203125,9.98860932617187,-0.569819995117188
3.09177970749138,0.0,9.94551369628906,-0.584185205078125
3.10226774145405,0.028730419921875,9.97424411621094,-0.617704028320312
3.11275735148009,-0.0239420166015625,10.0029745361328,-0.5746083984375
3.12324696150613,0.0047884033203125,10.0173397460938,-0.656011254882812
3.13373657153218,0.009576806640625,9.96945571289062,-0.617704028320312
3.14422774351568,0.0047884033203125,9.97903251953125,-0.598550415039062
3.15471891549919,0.0383072265625,9.95987890625,-0.627280834960937
3.1652100874827,0.0430956298828125,9.94551369628906,-0.641646044921875
3.17570275990023,-0.009576806640625,9.96945571289062,-0.608127221679687
3.18619543231776,0.0239420166015625,9.98860932617187,-0.67037646484375
3.19668810473529,0.01915361328125,9.99339772949219,-0.67037646484375
3.2071822392839,0.0047884033203125,9.97903251953125,-0.689530078125
3.2176763738325,-0.0047884033203125,9.98382092285156,-0.636857641601562
3.2281705083811,-0.01915361328125,9.9981861328125,-0.612915625
3.2387345832509,-0.0239420166015625,9.9981861328125,-0.636857641601562
3.24929865812069,0.0143652099609375,9.96945571289062,-0.603338818359375
3.25986273299048,-0.009576806640625,9.99339772949219,-0.627280834960937
3.28627746340496,-0.0047884033203125,9.96945571289062,-0.713472094726562
3.31269219381944,0.0,9.95987890625,-0.608127221679687
3.33910692423392,-0.0143652099609375,9.97424411621094,-0.569819995117188
3.34967537030597,0.01915361328125,9.98860932617187,-0.656011254882812
3.36024381637802,-0.047884033203125,9.97424411621094,-0.608127221679687
3.37081226245007,-0.0143652099609375,9.93593688964844,-0.603338818359375
3.38138243215492,-0.0047884033203125,9.95987890625,-0.608127221679687
3.39195260185977,0.0,9.95509050292969,-0.569819995117188
3.40252277156463,-0.0383072265625,9.93114848632812,-0.703895288085937
3.4130944149023,-0.0047884033203125,9.96466730957031,-0.660799658203125
3.42366605823997,-0.047884033203125,9.90720646972656,-0.63206923828125
3.43423770157764,0.0,9.95509050292969,-0.636857641601562
3.44488217998475,-0.05746083984375,9.95509050292969,-0.617704028320312
3.45552665839186,-0.0239420166015625,9.93114848632812,-0.59376201171875
3.46617113679897,-0.0143652099609375,9.96945571289062,-0.598550415039062
3.47681790980244,-0.009576806640625,9.96945571289062,-0.598550415039062
3.4874646828059,-0.0047884033203125,9.96945571289062,-0.622492431640625
3.49811145580937,0.0239420166015625,9.94551369628906,-0.569819995117188
3.50875978024513,-0.009576806640625,9.98382092285156,-0.565031591796875
3.51940810468089,-0.0526724365234375,9.95987890625,-0.545877978515625
3.53005642911665,-0.0239420166015625,9.95509050292969,-0.565031591796875
3.54070624975467,-0.009576806640625,9.95509050292969,-0.636857641601562
3.55135607039268,0.009576806640625,9.96945571289062,-0.617704028320312
3.5620058910307,-0.0143652099609375,9.96945571289062,-0.646434448242187
3.57265717141264,-0.0143652099609375,9.96945571289062,-0.6512228515625
3.58330845179458,0.01915361328125,9.95987890625,-0.608127221679687
3.59395973217652,-0.009576806640625,9.96466730957031,-0.59376201171875
3.60467967445083,-0.01915361328125,9.94551369628906,-0.646434448242187
3.61539961672513,0.0143652099609375,9.93114848632812,-0.679953271484375
3.62611955899944,0.028730419921875,9.95987890625,-0.627280834960937
3.63300236254762,0.01915361328125,9.95509050292969,-0.713472094726562
3.63988516609579,0.028730419921875,9.94551369628906,-0.665588061523437
3.64676796964397,0.0335188232421875,9.96945571289062,-0.646434448242187
3.64972570347644,0.0622492431640625,9.94072529296875,-0.67037646484375
3.65268343730891,0.0383072265625,9.92636008300781,-0.665588061523437
3.65564117114138,0.05746083984375,9.95509050292969,-0.617704028320312
3.65860004766047,0.0526724365234375,9.97903251953125,-0.641646044921875
3.66155892417956,0.047884033203125,9.95987890625,-0.5746083984375
3.66451780069865,0.076614453125,9.94072529296875,-0.55545478515625
3.66747541788615,0.0239420166015625,9.93114848632812,-0.5746083984375
3.67043303507365,0.067037646484375,9.9215716796875,-0.63206923828125
3.67339065226115,0.0430956298828125,9.94072529296875,-0.569819995117188
3.67629276565091,0.05746083984375,9.94551369628906,-0.531512768554687
3.67919487904066,0.0718260498046875,9.91199487304687,-0.603338818359375
3.68209699243041,0.076614453125,9.94551369628906,-0.612915625
3.6851387704252,0.01915361328125,9.97424411621094,-0.588973608398437
3.68818054841999,0.0383072265625,9.97424411621094,-0.598550415039062
3.69122232641478,0.0335188232421875,9.94072529296875,-0.636857641601562
3.69403603040784,0.0430956298828125,9.98382092285156,-0.612915625
3.6968497344009,0.01915361328125,9.92636008300781,-0.627280834960937
3.69966343839396,-0.028730419921875,9.95987890625,-0.598550415039062
3.70669074796429,0.0239420166015625,9.98382092285156,-0.627280834960937
3.71371805753461,0.0335188232421875,9.99339772949219,-0.603338818359375
3.72074536710493,0.0622492431640625,10.0077629394531,-0.588973608398437
3.72355427151031,0.067037646484375,9.95509050292969,-0.627280834960937
3.72636317591568,0.0335188232421875,10.0412817626953,-0.608127221679687
3.72917208032106,0.028730419921875,9.99339772949219,-0.689530078125
3.73220697843304,0.110133276367187,10.0269165527344,-0.646434448242187
3.73524187654502,0.0239420166015625,10.0125513427734,-0.660799658203125
3.738276774657,0.110133276367187,9.95987890625,-0.694318481445312
3.74126468939768,0.0909796630859375,9.95987890625,-0.598550415039062
3.74425260413835,0.076614453125,9.99339772949219,-0.641646044921875
3.74724051887902,0.0047884033203125,9.97424411621094,-0.612915625
3.7502111794693,0.09576806640625,9.99339772949219,-0.699106884765625
3.75318184005958,0.067037646484375,9.94072529296875,-0.689530078125
3.75615250064986,0.0622492431640625,9.93593688964844,-0.612915625
3.76631474899513,-0.0335188232421875,9.92636008300781,-0.588973608398437
3.7764769973404,-0.0239420166015625,9.93593688964844,-0.622492431640625
3.78663924568567,-0.05746083984375,9.96945571289062,-0.588973608398437
3.78945125061498,-0.01915361328125,9.94551369628906,-0.656011254882812
3.79226325554429,-0.009576806640625,9.95509050292969,-0.603338818359375
3.7950752604736,-0.009576806640625,9.96945571289062,-0.603338818359375
3.79784577991185,0.0143652099609375,9.93593688964844,-0.684741674804688
3.8006162993501,0.0,9.94072529296875,-0.627280834960937
3.80338681878835,0.009576806640625,9.95030209960937,-0.550666381835937
3.80611615004454,0.0143652099609375,9.97424411621094,-0.545877978515625
3.80884548130074,0.0335188232421875,9.95030209960937,-0.603338818359375
3.81157481255694,-0.0047884033203125,9.96945571289062,-0.608127221679687
3.82915000364541,0.0143652099609375,9.97903251953125,-0.59376201171875
3.84672519473388,0.028730419921875,9.97424411621094,-0.608127221679687
3.86430038582235,0.0143652099609375,9.95509050292969,-0.5746083984375
3.86702340976441,0.0,9.96466730957031,-0.603338818359375
3.86974643370647,0.0143652099609375,9.94551369628906,-0.550666381835937
3.87246945764852,0.0,9.96466730957031,-0.536301171875
3.8753461225628,0.0383072265625,9.97903251953125,-0.560243188476563
3.87822278747708,-0.0143652099609375,9.98860932617187,-0.608127221679687
3.88109945239136,-0.009576806640625,9.95509050292969,-0.493205541992187
3.8840534589072,0.0,9.97424411621094,-0.526724365234375
3.88700746542305,0.067037646484375,9.96466730957031,-0.483628735351562
3.88996147193889,0.0143652099609375,9.97903251953125,-0.474051928710937
3.89299353164484,-0.0239420166015625,9.98860932617187,-0.531512768554687
3.89602559135079,0.028730419921875,9.95509050292969,-0.5746083984375
3.89905765105674,0.0143652099609375,9.94072529296875,-0.627280834960937
3.90209138179133,-0.01915361328125,9.95030209960937,-0.584185205078125
3.90512511252591,-0.009576806640625,9.97424411621094,-0.675164868164063
3.9081588432605,0.0383072265625,9.97903251953125,-0.694318481445312
3.91117529427504,0.0239420166015625,9.98382092285156,-0.646434448242187
3.91419174528958,0.01915361328125,9.98860932617187,-0.675164868164063
3.91720819630412,0.0047884033203125,9.97903251953125,-0.641646044921875
3.92015283136813,0.0,9.96945571289062,-0.622492431640625
3.92309746643215,0.0239420166015625,9.96466730957031,-0.723048901367187
3.92604210149616,0.01915361328125,9.95987890625,-0.63206923828125
3.92891555863049,0.009576806640625,9.96945571289062,-0.617704028320312
3.93178901576482,0.01915361328125,9.97903251953125,-0.588973608398437
3.93466247289915,0.0,9.9981861328125,-0.675164868164063
3.94537505948768,0.0383072265625,9.97424411621094,-0.636857641601562
3.95608764607621,0.0430956298828125,9.99339772949219,-0.612915625
3.96680023266474,0.0526724365234375,10.0269165527344,-0.550666381835937
3.9744684459894,-0.0047884033203125,9.95987890625,-0.608127221679687
3.98213665931406,0.0335188232421875,9.94551369628906,-0.660799658203125
3.98980487263871,0.0143652099609375,9.98382092285156,-0.598550415039062
3.99707190983947,0.0335188232421875,9.97903251953125,-0.608127221679687
4.00433894704024,0.028730419921875,9.97424411621094,-0.584185205078125
4.011605984241,0.0622492431640625,9.95509050292969,-0.565031591796875
4.01403059824182,0.0335188232421875,9.95509050292969,-0.59376201171875
4.01645521224264,0.067037646484375,9.94551369628906,-0.617704028320312
4.01887982624346,0.0430956298828125,9.95987890625,-0.560243188476563
4.02130628115026,0.086191259765625,9.95987890625,-0.536301171875
4.02373273605706,0.0335188232421875,9.97903251953125,-0.603338818359375
4.02615919096386,0.047884033203125,9.97903251953125,-0.5746083984375
4.02858790398584,0.076614453125,9.95987890625,-0.51714755859375
4.03101661700782,0.0383072265625,9.92636008300781,-0.579396801757812
4.0334453300298,0.047884033203125,9.94551369628906,-0.536301171875
4.03587582851071,0.067037646484375,9.9215716796875,-0.545877978515625
4.03830632699161,0.0622492431640625,9.99339772949219,-0.445321508789062
4.04073682547252,0.0622492431640625,9.95030209960937,-0.47884033203125
4.04316902336634,0.0430956298828125,9.98382092285156,-0.550666381835937
4.04560122126016,0.028730419921875,9.93114848632812,-0.474051928710937
4.04803341915399,0.047884033203125,9.95030209960937,-0.502782348632812
4.06161084895598,-0.0047884033203125,9.95509050292969,-0.545877978515625
4.07518827875797,0.0143652099609375,10.0221281494141,-0.531512768554687
4.08876570855996,0.0,10.0412817626953,-0.507570751953125
4.09133782152112,0.0335188232421875,10.0173397460938,-0.526724365234375
4.09390993448227,0.0239420166015625,9.98860932617187,-0.507570751953125
4.09648204744343,0.028730419921875,9.97903251953125,-0.579396801757812
4.09905614985771,0.01915361328125,9.95509050292969,-0.55545478515625
4.101630252272,0.0430956298828125,9.97903251953125,-0.488417138671875
4.10420435468628,0.028730419921875,9.98860932617187,-0.521935961914062
4.10677975872817,0.067037646484375,9.97424411621094,-0.550666381835937
4.10935516277005,0.0143652099609375,9.97903251953125,-0.526724365234375
4.11193056681194,0.047884033203125,10.0125513427734,-0.47884033203125
4.1145088411175,0.0335188232421875,9.96945571289062,-0.483628735351562
4.11708711542306,0.028730419921875,9.98860932617187,-0.474051928710937
4.11966538972862,0.0239420166015625,9.97424411621094,-0.536301171875
4.12217719083539,0.01915361328125,9.99339772949219,-0.521935961914062
4.12468899194216,-0.0239420166015625,9.97903251953125,-0.469263525390625
4.12720079304893,0.0383072265625,9.97903251953125,-0.502782348632812
4.12971484632583,0.0,10.0029745361328,-0.47884033203125
4.13222889960273,0.0047884033203125,9.98382092285156,-0.47884033203125
4.13474295287963,0.028730419921875,10.0077629394531,-0.474051928710937
4.13726009274508,-0.0047884033203125,9.96466730957031,-0.474051928710937
4.13977723261053,0.009576806640625,9.97903251953125,-0.469263525390625
4.14229437247597,0.009576806640625,9.98382092285156,-0.483628735351562
4.14753119702024,-0.0239420166015625,10.036493359375,-0.44053310546875
4.1527680215645,0.0,9.99339772949219,-0.411802685546875
4.15800484610877,0.0239420166015625,10.0125513427734,-0.407014282226562
4.16065910815304,-0.009576806640625,10.0317049560547,-0.4213794921875
4.16331337019731,-0.009576806640625,10.0077629394531,-0.40222587890625
4.16596763224157,-0.0143652099609375,10.0173397460938,-0.454898315429687
4.16862329388074,-0.0335188232421875,10.0269165527344,-0.47884033203125
4.17127895551992,-0.0526724365234375,10.0029745361328,-0.45968671875
4.17393461715909,0.028730419921875,10.036493359375,-0.445321508789062
4.17659164312841,-0.009576806640625,10.0125513427734,-0.40222587890625
4.17924866909773,0.01915361328125,10.0508585693359,-0.450109912109375
4.18190569506706,-0.0239420166015625,10.0173397460938,-0.435744702148437
4.18456402330056,-0.009576806640625,10.0460701660156,-0.359130249023437
4.18722235153407,0.0239420166015625,10.0269165527344,-0.373495458984375
4.18988067976757,0.0,10.0460701660156,-0.368707055664062
4.1925404736767,-0.0239420166015625,10.0412817626953,-0.359130249023437
4.19520026758584,0.05746083984375,9.99339772949219,-0.359130249023437
4.19786006149497,0.0239420166015625,9.9981861328125,-0.392649072265625
4.20052112153548,0.0,10.0317049560547,-0.368707055664062
4.20318218157598,0.0047884033203125,10.0508585693359,-0.383072265625
4.20584324161648,0.0335188232421875,10.0652237792969,-0.407014282226562
4.21288433392875,0.0430956298828125,10.1562034423828,-0.320823022460937
4.21992542624103,0.0622492431640625,10.1753570556641,-0.316034619140625
4.2269665185533,0.0526724365234375,10.1657802490234,-0.311246215820312
4.22985021603595,0.0430956298828125,10.1609918457031,-0.339976635742188
4.23273391351859,0.047884033203125,10.1992990722656,-0.311246215820312
4.23561761100124,0.09576806640625,10.2088758789062,-0.28730419921875
4.2385030305976,0.13407529296875,10.2088758789062,-0.272938989257812
4.24138845019395,0.0814028564453125,10.1945106689453,-0.272938989257812
4.24427386979031,0.076614453125,10.1705686523437,-0.253785375976562
4.24686160774604,0.0814028564453125,10.1466266357422,-0.32561142578125
4.24944934570177,0.05746083984375,10.1562034423828,-0.2681505859375
4.25203708365749,0.119710083007812,10.1609918457031,-0.234631762695312
4.25462793663058,0.138863696289063,10.1705686523437,-0.24899697265625
4.25721878960367,0.09576806640625,10.1705686523437,-0.196324536132812
4.25980964257676,0.119710083007812,10.1466266357422,-0.258573779296875
4.26240117610541,0.0718260498046875,10.1562034423828,-0.13407529296875
4.26499270963406,0.124498486328125,10.1178962158203,-0.181959326171875
4.26758424316271,0.09576806640625,10.1657802490234,-0.158017309570312
4.27546781466877,-0.0526724365234375,10.1083194091797,-0.0430956298828125
4.28335138617484,-0.0622492431640625,10.1226846191406,-0.0430956298828125
4.29123495768091,-0.067037646484375,10.1131078125,-0.047884033203125
4.29965149956459,-0.05746083984375,10.1945106689453,-0.129286889648437
4.30806804144827,-0.047884033203125,10.2136642822266,-0.086191259765625
4.31648458333195,-0.076614453125,10.2136642822266,-0.0526724365234375
4.31932909248452,-0.0718260498046875,10.1992990722656,-0.05746083984375
4.32217360163708,-0.0430956298828125,10.1992990722656,-0.047884033203125
4.32501811078965,-0.05746083984375,10.189722265625,-0.076614453125
4.32780546692572,-0.0383072265625,10.2328178955078,-0.0430956298828125
4.33059282306179,-0.0526724365234375,10.2184526855469,-0.028730419921875
4.33338017919787,-0.0335188232421875,10.2423947021484,0.028730419921875
4.33610910334609,-0.0622492431640625,10.2471831054687,-0.0047884033203125
4.33883802749432,-0.0383072265625,10.26633671875,0.0047884033203125
4.34156695164254,-0.129286889648437,10.2854903320312,0.067037646484375
4.34423718870309,-0.0909796630859375,10.2088758789062,0.086191259765625
4.34690742576363,-0.105344873046875,10.2184526855469,0.158017309570312
4.34957766282418,-0.0526724365234375,10.2567599121094,0.0718260498046875
4.35218917406007,-0.067037646484375,10.2711251220703,0.124498486328125
4.35480068529596,-0.067037646484375,10.26633671875,0.110133276367187
4.35741219653185,-0.028730419921875,10.2950671386719,0.0239420166015625
4.35989254022759,-0.105344873046875,10.2471831054687,0.0526724365234375
4.36237288392334,-0.0622492431640625,10.2471831054687,0.138863696289063
4.36485322761909,-0.0430956298828125,10.2184526855469,0.0622492431640625
4.38272227990006,-0.05746083984375,10.2759135253906,1.0342951171875
4.40059133218104,-0.0335188232421875,10.2807019287109,1.0342951171875
4.41846038446202,-0.047884033203125,10.2711251220703,1.05823713378906
4.4208688096116,-0.0383072265625,10.2998555419922,1.12527478027344
4.42327723476119,-0.067037646484375,10.2807019287109,1.24019645996094
4.42568565991077,-0.028730419921875,10.2471831054687,1.27850368652344
4.42809554506779,-0.0909796630859375,10.2376062988281,1.29286889648437
4.43050543022482,-0.105344873046875,10.2280294921875,1.32638771972656
4.43291531538184,-0.105344873046875,10.1801454589844,1.23061965332031
4.43533111280325,-0.13407529296875,10.1131078125,1.25935007324219
4.43774691022466,-0.100556469726563,10.0891657958984,1.22583125
4.44016270764607,-0.148440502929687,10.0700121826172,1.27850368652344
4.44258063174159,-0.124498486328125,10.0029745361328,1.29286889648437
4.44499855583711,-0.15322890625,9.94551369628906,1.29286889648437
4.44741647993262,-0.086191259765625,9.93593688964844,1.38863696289062
4.44989381140971,-0.0622492431640625,9.93114848632812,1.35032973632813
4.4523711428868,-0.0718260498046875,9.82101520996094,1.35511813964844
4.45484847436389,-0.0622492431640625,9.78749638671875,1.38384855957031
4.45732290395373,-0.076614453125,9.730035546875,1.37427175292969
4.45979733354357,-0.0430956298828125,9.73482395019531,1.47961662597656
4.46227176313341,-0.0143652099609375,9.6151138671875,1.47961662597656
4.46472969330919,-0.0526724365234375,9.55286462402344,1.51792385253906
4.46718762348497,-0.047884033203125,9.52892260742187,1.48440502929687
4.46964555366075,0.0239420166015625,9.38048210449219,1.47961662597656
4.4720865565796,0.0383072265625,9.36132849121094,1.46046301269531
4.47452755949844,0.0526724365234375,9.26556042480469,1.4939818359375
4.47696856241728,0.119710083007812,9.22246479492187,1.44130939941406
4.4793946446981,0.086191259765625,9.15063874511719,1.4939818359375
4.48182072697891,0.0814028564453125,9.12669672851562,1.42694418945312
4.48424680925973,0.09576806640625,9.08838950195312,1.56101948242187
4.48672733374975,0.124498486328125,9.02614025878906,1.50355864257812
4.48920785823977,0.100556469726563,8.98783303222656,1.58974990234375
4.49168838272979,0.100556469726563,8.87291135253906,1.63763393554687
4.49415322236738,0.09576806640625,8.79629689941406,1.58974990234375
4.49661806200497,0.119710083007812,8.78193168945312,1.6472107421875
4.49908290164255,0.1149216796875,8.72447084960938,1.61848032226562
4.50153144640167,0.110133276367187,8.58081875,1.5705962890625
4.50397999116079,0.1149216796875,8.53772312011719,1.608903515625
4.5064285359199,0.110133276367187,8.49462749023438,1.62326872558594
4.5088607068075,0.1149216796875,8.45632026367188,1.69030637207031
4.51129287769509,0.0430956298828125,8.36055219726562,1.71424838867187
4.51372504858269,0.047884033203125,8.27914934082031,1.8004396484375
4.51615303805751,0.009576806640625,8.21690009765625,1.84353527832031
4.51858102753233,0.0143652099609375,8.13070883789062,1.93451494140625
4.52100901700716,0.0,8.05888278808594,2.03507141113281
4.52350671009527,0.047884033203125,7.96311472167969,2.05422502441406
4.52600440318337,-0.0143652099609375,7.85776984863281,2.08295544433594
4.52850209627148,-0.0335188232421875,7.77157858886719,2.09253225097656
4.53107653306618,0.009576806640625,7.61356127929687,2.14041628417969
4.53365096986089,-0.047884033203125,7.5465236328125,2.08774384765625
4.53622540665559,-0.076614453125,7.42681354980469,2.068590234375
4.53880566240645,-0.100556469726563,7.32146867675781,2.05901342773437
4.54138591815732,-0.0909796630859375,7.1634513671875,1.97282216796875
4.54396617390819,-0.129286889648437,7.03416447753906,2.03985981445312
4.54654831556401,-0.143652099609375,6.94318481445312,1.99676418457031
4.54913045721983,-0.186747729492187,6.77080229492187,1.89620771484375
4.55171259887565,-0.17238251953125,6.68461103515625,1.88663090820312
4.55426099427496,-0.21068974609375,6.5505357421875,1.81480485839844
4.55680938967427,-0.181959326171875,6.46913288574219,1.75255561523437
4.55935778507357,-0.196324536132812,6.27759675292969,1.78128603515625
4.56187237939323,-0.181959326171875,6.16267507324219,1.79086284179687
4.5643869737129,-0.215478149414062,6.04296499023437,1.69509477539062
4.56690156803256,-0.225054956054687,5.89452448730469,1.56580788574219
4.56955616875413,-0.148440502929687,5.77481440429687,1.53707746582031
4.5722107694757,-0.220266552734375,5.76044919433594,1.46046301269531
4.57486537019727,-0.24899697265625,5.63595070800781,1.46046301269531
4.57752130400804,-0.220266552734375,5.56891306152344,1.4173673828125
4.58017723781881,-0.215478149414062,5.43483776855469,1.45088620605469
4.58283317162957,-0.225054956054687,5.41568415527344,1.45088620605469
4.5881423945571,-0.148440502929687,4.7884033203125,1.13485158691406
4.59345161748462,-0.15322890625,4.75009609375,1.09654436035156
4.59876084041214,-0.129286889648437,4.67827004394531,1.10133276367187
4.60141602389739,-0.1149216796875,4.61123239746094,1.01992990722656
4.60407120738263,-0.0909796630859375,4.59207878417969,0.9193734375
4.60672639086788,-0.124498486328125,4.56813676757812,0.914585034179687
4.60938040193559,-0.0909796630859375,4.51546433105469,0.847547387695312
4.6120344130033,-0.0430956298828125,4.52982954101562,0.76614453125
4.61468842407102,-0.076614453125,4.54898315429687,0.78529814453125
4.61734237122814,-0.0335188232421875,4.44363828125,0.732625708007812
4.61999631838527,-0.009576806640625,4.44842668457031,0.6512228515625
4.62265026554239,-0.0143652099609375,4.39096584472656,0.545877978515625
4.62530463522555,0.0239420166015625,4.42927307128906,0.617704028320312
4.62795900490871,0.0718260498046875,4.41490786132812,0.612915625
4.63061337459187,0.0718260498046875,4.41969626464844,0.699106884765625
4.63975597159708,0.392649072265625,6.84741674804687,1.14442839355469
4.64889856860228,0.373495458984375,7.07726010742187,1.24498486328125
4.65804116560749,0.430956298828125,7.29752666015625,1.31202250976562
4.66054686721339,0.502782348632812,7.40765993652344,1.31681091308594
4.6630525688193,0.526724365234375,7.53694682617187,1.43173259277344
4.66555827042521,0.521935961914062,7.63750329589844,1.48919343261719
4.66813241832018,0.545877978515625,7.75721337890625,1.455674609375
4.67070656621515,0.541089575195312,7.79552060546875,1.59932670898438
4.67328071411012,0.560243188476563,7.82425102539062,1.65678754882812
4.67585475420344,0.560243188476563,7.78594379882812,1.59453830566406
4.67842879429675,0.55545478515625,7.8529814453125,1.67115275878906
4.68100283439007,0.541089575195312,7.85776984863281,1.63763393554687
4.68486080539159,0.45968671875,7.58004245605469,1.7238251953125
4.68871877639312,0.435744702148437,7.53215842285156,1.68072956542969
4.69257674739464,0.368707055664062,7.50821640625,1.74297880859375
4.69500472460818,0.316034619140625,7.47469758300781,1.82917006835937
4.69743270182172,0.330399829101562,7.431601953125,1.87226569824219
4.69986067903525,0.253785375976562,7.43639035644531,2.00634099121094
4.70228843912639,0.229843359375,7.41244833984375,2.01591779785156
4.70471619921753,0.177170922851562,7.3932947265625,1.88184250488281
4.70714395930867,0.105344873046875,7.35019909667969,1.86268889160156
4.70957272478447,0.086191259765625,7.41723674316406,1.75255561523437
4.71200149026027,0.0335188232421875,7.41244833984375,1.77170922851562
4.71443025573607,0.009576806640625,7.46033237304687,1.78607443847656
4.71685999001612,-0.05746083984375,7.47469758300781,1.82438166503906
4.71928972429617,-0.105344873046875,7.50342800292969,1.79086284179687
4.72171945857622,-0.162805712890625,7.57046564941406,1.77649763183594
4.724216107285,-0.220266552734375,7.65186850585937,1.78128603515625
4.72671275599377,-0.272938989257812,7.69017573242187,1.80522805175781
4.72920940470254,-0.330399829101562,7.69496413574219,1.75734401855469
4.73159620423596,-0.378283862304687,7.75721337890625,1.78607443847656
4.73398300376938,-0.474051928710937,7.80030900878906,1.81959326171875
4.7363698033028,-0.584185205078125,7.83861623535156,1.84832368164062
4.73864406078978,-0.636857641601562,7.87692346191406,1.92014973144531
4.74091831827676,-0.842758984375,7.87213505859375,1.87226569824219
4.74319257576374,-0.885854614257812,7.88650026855469,1.89620771484375
4.7455315689278,-1.01514150390625,7.91523068847656,1.92493813476562
4.74787056209185,-1.1109095703125,7.90086547851562,1.89141931152344
4.75020955525591,-1.24019645996094,7.92480749511719,1.98718737792969
4.75254994183903,-1.26892687988281,7.95832631835937,1.99197578125
4.75489032842215,-1.35990654296875,7.95832631835937,2.03985981445312
4.75723071500527,-1.46046301269531,8.01099875488281,2.1452046875
4.75957203605019,-1.4939818359375,8.044517578125,2.20745393066406
4.76191335709512,-1.55623107910156,8.05888278808594,2.23618435058594
4.76425467814004,-1.56101948242187,8.12113203125,2.33195241699219
4.76659898171534,-1.54665427246094,8.24563051757812,2.43729729003906
4.76894328529064,-1.59453830566406,8.27914934082031,2.53785375976562
4.77128758886595,-1.59932670898438,8.36055219726562,2.61925661621094
4.77363536262897,-1.59932670898438,8.4658970703125,2.71023627929688
4.775983136392,-1.61369191894531,8.54729992675781,2.72938989257813
4.77833091015502,-1.56580788574219,8.67179841308594,2.73417829589844
4.78067768576266,-1.56101948242187,8.73883605957031,2.70065947265625
4.78302446137031,-1.50834704589844,8.87291135253906,2.59052619628906
4.78537123697795,-1.47482822265625,8.9255837890625,2.63362182617187
4.78771919639635,-1.42215578613281,9.01177504882812,2.62404501953125
4.79006715581474,-1.38384855957031,9.03092866210937,2.57616098632812
4.79241511523314,-1.33117612304687,9.13148513183594,2.67192905273437
4.79481842154824,-1.29286889648437,9.22725319824219,2.76290871582031
4.79722172786335,-1.25935007324219,9.26556042480469,2.93050283203125
4.79962503417845,-1.19231242675781,9.30386765136719,3.294421484375
4.80202322875853,-1.08217915039062,9.37090529785156,3.52905324707031
4.80442142333861,-1.01514150390625,9.44273134765625,3.72058937988281
4.80681961791868,-0.890643017578125,9.51455739746094,3.75889660644531
4.80920976504506,-0.818816967773437,9.51455739746094,3.72537778320312
4.81159991217143,-0.723048901367187,9.56244143066406,3.66312854003906
4.8139900592978,-0.569819995117188,9.73961235351562,3.52426484375
4.81637188184374,-0.464475122070312,9.79707319335937,3.41413156738281
4.81875370438968,-0.28730419921875,9.90720646972656,3.42849677734375
4.82113552693561,-0.17238251953125,9.95987890625,3.36624753417969
4.82373848551308,0.0383072265625,10.0604353759766,3.43328518066406
4.82634144409056,0.119710083007812,10.1131078125,3.51947644042969
4.82894440266803,0.349553442382812,10.1418382324219,3.66312854003906
4.83154485372236,0.450109912109375,10.1849338623047,3.73495458984375
4.83414530477669,0.536301171875,10.1945106689453,3.73495458984375
4.83674575583102,0.612915625,10.2902787353516,3.83072265625
4.83934158108963,0.699106884765625,10.342951171875,3.7158009765625
4.84193740634824,0.78529814453125,10.3142207519531,3.73974299316406
4.84453323160685,0.82360537109375,10.2807019287109,3.54341845703125
4.84712732063679,0.852335791015625,10.2902787353516,3.38061274414062
4.84972140966674,0.890643017578125,10.2615483154297,3.24653745117187
4.85231549869668,0.991199487304687,10.2567599121094,3.1794998046875
4.85483289295667,0.991199487304687,10.1466266357422,3.08852014160156
4.85735028721665,0.981622680664062,10.1274730224609,3.06936652832031
4.85986768147663,1.01992990722656,10.1753570556641,3.14598098144531
4.8622704498143,1.01514150390625,10.1849338623047,3.33751711425781
4.86467321815197,0.9576806640625,10.2376062988281,3.49553442382812
4.86707598648964,0.8810662109375,10.2232410888672,3.82114584960937
4.8694019406997,0.809240161132812,10.2759135253906,3.83551105957031
4.87172789490977,0.675164868164063,10.3381627685547,3.98873996582031
4.87405384911983,0.541089575195312,10.3860468017578,3.97916315917969
4.88677992266817,-1.21625444335937,11.1713449462891,5.33428129882812
4.8995059962165,-1.09654436035156,11.1809217529297,5.43004936523437
4.91223206976484,-0.97683427734375,11.2192289794922,5.3247044921875
4.91456490792674,-0.890643017578125,11.3102086425781,5.10922634277344
4.91689774608863,-0.775721337890625,11.3054202392578,5.02303508300781
4.91923058425053,-0.612915625,11.3437274658203,5.05655390625
4.92156506416899,-0.40222587890625,11.4634375488281,5.14753356933594
4.92389954408746,-0.368707055664062,11.4203419189453,5.1714755859375
4.92623402400593,-0.234631762695312,11.4586491455078,5.09964953613281
4.92856920759968,-0.148440502929687,11.4873795654297,5.1714755859375
4.93090439119343,-0.05746083984375,11.5496288085937,5.32949289550781
4.93323957478719,0.0526724365234375,11.6597620849609,5.58806667480469
4.93551312351765,0.1149216796875,11.7363765380859,5.80833322753906
4.93778667224812,0.21068974609375,11.9039706542969,5.88973608398438
4.94006022097859,0.272938989257812,12.0667763671875,6.052541796875
4.94238986213527,0.359130249023437,12.2295820800781,6.11479104003906
4.94471950329195,0.44053310546875,12.4402718261719,6.11957944335937
4.94704914444863,0.45968671875,12.6030775390625,6.31111557617187
4.94931496790783,0.4979939453125,12.7610948486328,6.30632717285156
4.95158079136703,0.579396801757812,12.8472861083984,6.38294162597656
4.95384661482623,0.521935961914062,13.0436106445312,6.46434448242187
4.95618851071381,0.507570751953125,13.2351467773437,6.49307490234375
4.95853040660139,0.454898315429687,13.3404916503906,6.59363137207031
4.96087230248897,0.435744702148437,13.4506249267578,6.64151540527344
4.96321658444426,0.349553442382812,13.5990654296875,6.75164868164062
4.96556086639955,0.205901342773437,13.7379291259766,6.90487758789063
4.96790514835484,0.0718260498046875,13.8289087890625,6.94318481445312
4.97025042624112,-0.047884033203125,13.9198884521484,7.18260498046875
4.9725957041274,-0.15322890625,14.0252333251953,7.42202514648437
4.97494098201368,-0.282515795898438,14.1593086181641,7.59919606933594
4.97728583802497,-0.354341845703125,14.2742302978516,7.64229169921875
4.97963069403625,-0.411802685546875,14.4657664306641,7.63271489257812
4.98197555004753,-0.493205541992187,14.6860329833984,7.51300480957031
4.98431985636264,-0.67037646484375,14.7051865966797,7.39808312988281
4.98666416267775,-0.608127221679687,14.8248966796875,7.28794985351562
4.98900846899286,-0.63206923828125,15.0595284423828,7.48427438964844
4.99498107541104,-0.483628735351562,16.1081887695312,8.73404765625
5.00095368182923,-0.47884033203125,16.318878515625,8.87291135253906
5.00692628824741,-0.454898315429687,16.5678754882812,9.03092866210937
5.00933818955492,-0.359130249023437,16.7833536376953,9.21288798828125
5.01175009086243,-0.507570751953125,16.9557361572266,9.32780966796875
5.01416199216994,-0.59376201171875,17.1089650634766,9.4618849609375
5.02014256533075,-0.8810662109375,17.6117474121094,9.97424411621094
5.02612313849156,-0.9576806640625,17.6069590087891,10.2471831054687
5.03210371165237,-1.01992990722656,17.6165358154297,10.4243540283203
5.03447670945511,-0.972045874023437,17.7266690917969,10.5440641113281
5.03684970725785,-0.995987890625,17.8559559814453,10.5201220947266
5.03922270506059,-1.00556469726562,18.0139732910156,10.5057568847656
5.04158470533728,-1.00077629394531,18.1767790039062,10.3908352050781
5.04394670561397,-1.00077629394531,18.2581818603516,10.1035310058594
5.04630870589067,-0.991199487304687,18.3300079101562,9.96945571289062
5.04862973676089,-0.905008227539062,18.4114107666016,9.82580361328125
5.05095076763111,-0.833182177734375,18.4161991699219,10.0652237792969
5.05327179850133,-0.876277807617187,18.3778919433594,10.4674496582031
5.0555538191719,-0.828393774414062,18.2773354736328,10.7403886474609
5.05783583984247,-0.82360537109375,18.2007210205078,10.9415015869141
5.06011786051305,-0.82360537109375,18.0953761474609,11.0229044433594
5.0624585144844,-0.8044517578125,17.9804544677734,11.1665565429687
5.06479916845575,-0.751779321289062,17.9900312744141,11.1809217529297
5.06713982242709,-0.703895288085937,17.9229936279297,11.0660000732422
5.06948061197788,-0.656011254882812,17.9373588378906,11.2000753662109
5.07182140152866,-0.641646044921875,17.9229936279297,11.1330377197266
5.07416219107944,-0.588973608398437,17.9421472412109,11.0372696533203
5.07650181944315,-0.5746083984375,17.9469356445312,10.8984059570312
5.07884144780687,-0.526724365234375,18.0714341308594,10.7451770507812
5.08118107617058,-0.55545478515625,18.1097413574219,10.5775829345703
5.0835175249553,-0.603338818359375,18.2150862304687,10.4099888183594
5.08585397374002,-0.679953271484375,18.2246630371094,10.1849338623047
5.08819042252475,-0.790086547851562,18.1815674072266,10.1226846191406
5.09052807714714,-0.933738647460937,18.1049529541016,10.3094323486328
5.09286573176954,-1.02950671386719,18.0666457275391,10.4818148681641
5.09520338639193,-1.19710083007812,18.0905877441406,10.5584293212891
5.0977393123902,-1.34554133300781,18.1384717773437,10.4482960449219
5.10027523838846,-1.47961662597656,18.2246630371094,10.3190091552734
5.10281116438673,-1.61369191894531,18.3491615234375,10.2376062988281
5.10525944650479,-1.69988317871094,18.5359092529297,10.0891657958984
5.10770772862285,-1.78607443847656,18.6987149658203,9.883264453125
5.11015601074091,-2.00155258789062,18.8902510986328,9.74440075683594
5.11258236707772,-2.12605107421875,19.0099611816406,9.44751975097656
5.11500872341452,-2.25054956054688,19.15361328125,9.27992563476562
5.11743507975133,-2.31758720703125,19.2829001708984,9.18894597167969
5.11986100021574,-2.40377846679687,19.4457058837891,9.01656345214844
5.12228692068015,-2.47560451660156,19.5223203369141,8.70531723632812
5.12471284114456,-2.4899697265625,19.6276652099609,8.56166513671875
5.12713925352521,-2.42772048339844,19.7377984863281,8.54729992675781
5.12956566590585,-2.4133552734375,19.8000477294922,8.64306799316406
5.1319920782865,-2.34152922363281,19.9101810058594,8.70052883300781
5.13441847482513,-2.20266552734375,20.0059490722656,8.8872765625
5.13684487136376,-2.05901342773437,20.1352359619141,8.86812294921875
5.13927126790239,-1.96324536132812,20.2453692382812,8.81545051269531
5.14169790456689,-1.84353527832031,20.4177517578125,8.80587370605469
5.14412454123139,-1.66157595214844,20.5901342773437,8.73404765625
5.14655117789589,-1.55623107910156,20.8199776367188,8.58081875
5.15825508938135,-0.617704028320312,24.7033727294922,5.02782348632813
5.16995900086682,-0.541089575195312,24.8135060058594,4.92726701660156
5.18166291235229,-0.411802685546875,24.7177379394531,4.71657727050781
5.18393065421427,-0.263362182617187,24.7895639892578,4.65911643066406
5.18619839607625,-0.129286889648437,24.8757552490234,4.49152231445312
5.18846613793823,0.105344873046875,24.8470248291016,4.35265861816406
5.19073293622382,0.13407529296875,24.7225263427734,4.28562097167969
5.19299973450942,0.0143652099609375,24.7129495361328,4.33350500488281
5.19526653279501,-0.0047884033203125,24.6602770996094,4.38617744140625
5.19752944718303,-0.01915361328125,24.4160685302734,4.56334836425781
5.19979236157105,-0.105344873046875,24.1383411376953,4.85544096679687
5.20205527595908,-0.138863696289063,23.8462485351562,5.25287844238281
5.20431736298164,-0.272938989257812,23.3913502197266,5.73171877441406
5.20657945000421,-0.320823022460937,23.0657387939453,6.04296499023437
5.20884153702678,-0.383072265625,22.5821100585937,6.33505759277344
5.21114914302721,-0.464475122070312,22.1032697265625,6.68461103515625
5.21345674902764,-0.526724365234375,21.6196409912109,7.08204851074219
5.21576435502807,-0.493205541992187,21.1743194824219,7.48427438964844
5.21812655827243,-0.450109912109375,20.7194211669922,7.70932934570312
5.2204887615168,-0.296881005859375,20.2932532714844,7.82903942871094
5.22285096476116,-0.339976635742188,19.8766621826172,7.80988581542969
5.22519766495648,-0.7278373046875,19.4888015136719,7.80509741210937
5.22754436515179,-1.2641384765625,19.000384375,8.02057556152344
5.22989106534711,-1.63284553222656,18.3731035400391,8.25520732421875
5.23216724846344,-1.77649763183594,17.6021706054687,8.45632026367188
5.23444343157977,-1.61848032226562,16.7977188476562,8.83460412597656
5.23671961469609,-1.13006318359375,16.0603047363281,9.24640681152344
5.23890116335061,-0.493205541992187,15.3516210449219,9.97903251953125
5.24108271200513,0.282515795898438,14.6094185302734,10.7930610839844
5.24326426065965,0.986411083984375,13.7475059326172,11.5544172119141
5.24544645467007,1.4173673828125,12.8281324951172,11.7794721679688
5.24762864868049,1.53707746582031,11.6262432617187,11.7459533447266
5.24981084269091,1.46046301269531,10.1562034423828,11.5304751953125
5.25199075252164,1.09175595703125,8.41322463378906,11.1952869628906
5.25417066235236,0.732625708007812,6.70855305175781,10.8888291503906
5.25635057218309,0.3447650390625,5.07570751953125,10.6111017578125
5.26179195800664,-0.723048901367187,-2.43250888671875,4.01747038574219
5.26723334383019,-0.387860668945312,-2.66714064941406,4.42448466796875
5.27267472965374,0.047884033203125,-2.61925661621094,4.9416322265625
5.27485063172622,0.63206923828125,-2.46123930664062,5.29118566894531
5.2770265337987,1.25935007324219,-2.22660754394531,5.23372482910156
5.27920243587118,1.9536685546875,-2.09253225097656,4.85544096679687
5.28137836338854,2.45645090332031,-1.84832368164062,4.04620080566406
5.28355429090591,2.62883342285156,-1.50834704589844,3.20344182128906
5.28573021842328,2.72938989257813,-1.15400520019531,2.67671745605469
5.28790473450943,2.62404501953125,-0.679953271484375,3.1794998046875
5.29007925059558,2.49475812988281,-0.0335188232421875,4.65432802734375
5.29225376668173,2.59052619628906,0.76614453125,7.0102224609375
5.29442104828438,3.13161577148437,1.48919343261719,10.1562034423828
5.29658832988702,3.96479794921875,2.21224233398438,13.6086422363281
5.29875561148967,4.89853659667969,2.92571442871094,16.9892549804688
5.30098276082235,5.44441457519531,3.56736047363281,19.8192013427734
5.30320991015503,5.41568415527344,4.35265861816406,21.988348046875
5.30543705948771,5.09007272949219,5.0182466796875,22.8837794677734
5.30765777533514,4.57771357421875,5.06134230957031,22.1655189697266
5.30987849118258,3.77805021972656,5.22893642578125,20.2740996582031
5.31209920703002,3.12682736816406,5.14753356933594,17.7314574951172
5.31431279277763,2.66714064941406,4.6351744140625,14.9110879394531
5.31652637852524,1.95845695800781,3.96000954589844,12.4690022460937
5.31873996427285,1.09175595703125,3.16034619140625,10.3381627685547
5.32094631282428,0.220266552734375,2.0302830078125,8.12592043457031
5.32315266137571,-0.579396801757812,0.847547387695312,5.8610056640625
5.32535900992715,-1.28329208984375,-0.454898315429687,3.73016618652344
5.32755810316173,-1.94888015136719,-1.61848032226562,1.7238251953125
5.32975719639632,-2.54743056640625,-2.43729729003906,0.162805712890625
5.33195628963091,-3.08852014160156,-3.00711728515625,-1.05344873046875
5.3342203580988,-3.47638081054687,-3.35667072753906,-1.94409174804687
5.33648442656668,-3.88339509277344,-3.60566770019531,-2.30322199707031
5.33874849503457,-4.15633408203125,-3.70143576660156,-2.37025964355469
5.34101455395384,-4.26167895507812,-3.88818349609375,-2.0302830078125
5.34328061287312,-4.30956298828125,-4.06535441894531,-1.65199914550781
5.34554667179239,-4.40054265136719,-4.33350500488281,-1.55623107910156
5.34781398244778,-4.26646735839844,-4.75967290039062,-1.85790048828125
5.35008129310316,-4.22337172851562,-5.23372482910156,-2.41814367675781
5.35234860375854,-4.0988732421875,-5.592855078125,-2.90656081542969
5.35461143633233,-3.8690298828125,-5.87058247070312,-3.32315190429687
5.35687426890611,-3.5625720703125,-6.04775339355469,-3.41413156738281
5.35913710147989,-3.18428820800781,-6.052541796875,-3.27047946777344
5.36139906469604,-2.66235224609375,-5.95198532714844,-2.96402165527344
5.36366102791219,-2.18830031738281,-5.66468112792969,-2.68629426269531
5.36592299112834,-1.69988317871094,-5.21457121582031,-2.50912333984375
5.36818981111532,-1.23061965332031,-4.69742365722656,-2.36547124023437
5.3704566311023,-0.775721337890625,-4.05098920898438,-2.35589443359375
5.37272345108929,-0.3447650390625,-3.2561142578125,-2.48039291992187
5.37499111949207,-0.028730419921875,-2.36547124023437,-2.77248552246094
5.37725878789486,0.40222587890625,-1.49877023925781,-3.10767375488281
5.37952645629764,0.6512228515625,-0.526724365234375,-3.39497795410156
5.38179422973514,0.97683427734375,0.430956298828125,-3.55299526367187
5.38406200317265,1.25456166992187,1.38384855957031,-3.56736047363281
5.38632977661015,1.35511813964844,2.2601263671875,-3.38061274414062
5.38859929429678,1.51313544921875,2.99275207519531,-3.19386501464844
5.3908688119834,1.52750065917969,3.71101257324219,-2.90656081542969
5.39313832967002,1.56580788574219,4.35744702148437,-2.70065947265625
5.39547662860666,1.54186586914062,5.01345827636719,-2.51870014648437
5.3978149275433,1.47003981933594,5.5545478515625,-2.27449157714844
5.40015322647994,1.35032973632813,6.09563742675781,-2.12126267089844
5.40242266582456,1.29765729980469,6.45955607910156,-2.03507141113281
5.40469210516918,1.21625444335937,6.77080229492187,-1.90578452148437
5.40696154451379,1.16358200683594,6.98628044433594,-1.68551796875
5.40923138403202,1.08217915039062,7.10120212402344,-1.63284553222656
5.41150122355025,0.914585034179687,7.10120212402344,-1.59453830566406
5.41377106306848,0.775721337890625,7.0102224609375,-1.59453830566406
5.41604096324209,0.608127221679687,6.73249506835937,-1.55623107910156
5.41831086341569,0.411802685546875,6.32548078613281,-1.51313544921875
5.4205807635893,0.225054956054687,5.82748684082031,-1.48919343261719
5.42285063403201,0.1149216796875,5.21457121582031,-1.45088620605469
5.42512050447472,-0.0622492431640625,4.56813676757812,-1.5322890625
5.42739037491742,-0.138863696289063,3.87860668945312,-1.60411511230469
5.42966030373687,-0.311246215820312,3.31357509765625,-1.70467158203125
5.43193023255632,-0.464475122070312,2.681505859375,-1.81959326171875
5.43420016137577,-0.565031591796875,2.10210905761719,-1.86268889160156
5.4365439649782,-0.603338818359375,1.51313544921875,-1.84353527832031
5.43888776858063,-0.521935961914062,0.943315454101562,-1.77649763183594
5.44123157218306,-0.550666381835937,0.397437475585937,-1.70467158203125
5.44350089922298,-0.521935961914062,-0.05746083984375,-1.60411511230469
5.44577022626291,-0.392649072265625,-0.493205541992187,-1.47482822265625
5.44803955330283,-0.311246215820312,-0.909796630859375,-1.31202250976562
5.45030356914484,-0.177170922851562,-1.27850368652344,-1.2641384765625
5.45256758498686,-0.086191259765625,-1.63763393554687,-1.20667763671875
5.45483160082887,0.0239420166015625,-1.9536685546875,-1.13006318359375
5.45709411157105,0.177170922851562,-2.25054956054688,-1.24977326660156
5.45935662231324,0.272938989257812,-2.528276953125,-1.23061965332031
5.46161913305542,0.316034619140625,-2.79163913574219,-1.31202250976562
5.46388120629761,0.450109912109375,-3.07894333496094,-1.26892687988281
5.4661432795398,0.51714755859375,-3.294421484375,-1.35511813964844
5.46840535278199,0.550666381835937,-3.46201560058594,-1.4173673828125
5.47066743839397,0.679953271484375,-3.65834013671875,-1.41257897949219
5.47292952400594,0.790086547851562,-3.73495458984375,-1.48440502929687
5.47519160961792,0.809240161132812,-3.77326181640625,-1.4939818359375
5.47731498526897,0.86191259765625,-3.81156904296875,-1.5705962890625
5.47943836092001,0.905008227539062,-3.70622416992187,-1.5322890625
5.48156173657105,0.857124194335937,-3.60566770019531,-1.61369191894531
5.4869768292631,0.320823022460937,-0.550666381835937,-0.507570751953125
5.49239192195516,0.292092602539062,-0.100556469726563,-0.301669409179687
5.49780701464721,0.201112939453125,0.225054956054687,-0.143652099609375
5.49999707600788,0.076614453125,0.5746083984375,-0.0526724365234375
5.50218713736856,0.047884033203125,0.895431420898437,0.086191259765625
5.50437719872923,-0.0430956298828125,1.13006318359375,0.229843359375
5.50653384298921,-0.028730419921875,1.37427175292969,0.36391865234375
5.5086904872492,-0.01915361328125,1.5705962890625,0.560243188476563
5.51084713150918,0.0047884033203125,1.73819040527344,0.70868369140625
5.51296854492064,-0.009576806640625,1.84353527832031,0.895431420898437
5.5150899583321,0.0335188232421875,1.98239897460937,1.04387192382812
5.51721137174356,0.0335188232421875,2.01112939453125,1.19710083007812
5.5193321865222,0.0622492431640625,2.05901342773437,1.36469494628906
5.52145300130084,0.110133276367187,2.03507141113281,1.47961662597656
5.52357381607948,0.0909796630859375,1.95845695800781,1.70945998535156
5.52575649339791,0.162805712890625,1.86747729492187,1.81480485839844
5.52793917071634,0.105344873046875,1.72861359863281,1.93451494140625
5.53012184803477,0.181959326171875,1.58974990234375,1.93451494140625
5.5323062639238,0.205901342773437,1.40300217285156,1.78607443847656
5.53449067981284,0.177170922851562,1.16358200683594,1.63284553222656
5.53667509570187,0.196324536132812,0.972045874023437,1.35990654296875
5.53886052012678,0.177170922851562,0.8044517578125,1.17315881347656
5.5410459445517,0.215478149414062,0.59376201171875,1.19231242675781
5.54323136897662,0.196324536132812,0.450109912109375,1.30723410644531
5.54549137928478,0.215478149414062,0.3447650390625,1.42694418945312
5.54775138959295,0.196324536132812,0.220266552734375,1.52271225585937
5.55001139990111,0.24899697265625,0.09576806640625,1.51313544921875
5.5522983578004,0.129286889648437,0.0239420166015625,1.47482822265625
5.5545853156997,0.129286889648437,-0.0526724365234375,1.35990654296875
5.556872273599,0.0622492431640625,-0.143652099609375,1.22104284667969
5.5590888612726,0.0047884033203125,-0.24899697265625,1.08217915039062
5.56130544894621,0.0,-0.32561142578125,0.8810662109375
5.56352203661982,-0.028730419921875,-0.354341845703125,0.656011254882812
5.56573745719273,-0.05746083984375,-0.469263525390625,0.536301171875
5.56795287776564,-0.0335188232421875,-0.469263525390625,0.416591088867187
5.57016829833856,-0.0383072265625,-0.5746083984375,0.339976635742188
5.57238361249329,-0.047884033203125,-0.617704028320312,0.244208569335937
5.57459892664802,-0.009576806640625,-0.665588061523437,0.282515795898438
5.57681424080275,0.0047884033203125,-0.775721337890625,0.3064578125
5.57902958167731,-0.01915361328125,-0.842758984375,0.3447650390625
5.58124492255188,0.01915361328125,-0.86191259765625,0.44053310546875
5.58346026342645,0.0143652099609375,-0.928950244140625,0.4213794921875
5.5856747547459,-0.009576806640625,-1.02471831054687,0.450109912109375
5.58788924606534,-0.0047884033203125,-1.05344873046875,0.526724365234375
5.59010373738479,0.0,-1.13006318359375,0.474051928710937
5.59243810576587,-0.009576806640625,-1.14442839355469,0.450109912109375
5.59477247414695,-0.0430956298828125,-1.21146604003906,0.469263525390625
5.59710684252802,-0.028730419921875,-1.21146604003906,0.4213794921875
5.59944113001717,-0.0143652099609375,-1.21625444335937,0.36391865234375
5.60177541750632,-0.0526724365234375,-1.19710083007812,0.335188232421875
5.60410970499547,0.0047884033203125,-1.21625444335937,0.3447650390625
5.6064854305814,-0.028730419921875,-1.23061965332031,0.301669409179687
5.60886115616734,-0.009576806640625,-1.21625444335937,0.205901342773437
5.61123688175327,0.0335188232421875,-1.20667763671875,0.158017309570312
5.61358121465257,0.0383072265625,-1.17315881347656,0.076614453125
5.61592554755188,0.076614453125,-1.17315881347656,-0.067037646484375
5.61826988045118,0.086191259765625,-1.20667763671875,-0.1915361328125
5.62061159534918,0.0909796630859375,-1.20188923339844,-0.282515795898438
5.62295331024718,0.100556469726563,-1.13963999023438,-0.339976635742188
5.62529502514518,0.13407529296875,-1.13485158691406,-0.339976635742188
5.62760274210482,0.138863696289063,-1.10133276367187,-0.411802685546875
5.62991045906446,0.1915361328125,-1.09654436035156,-0.373495458984375
5.6322181760241,0.167594116210937,-1.12048637695313,-0.373495458984375
5.63449250952019,0.181959326171875,-1.05344873046875,-0.378283862304687
5.63676684301628,0.1915361328125,-1.06302553710937,-0.349553442382812
5.63904117651238,0.167594116210937,-1.04866032714844,-0.368707055664062
5.64471884646138,-0.028730419921875,-0.320823022460937,-0.454898315429687
5.65039651641039,-0.047884033203125,-0.292092602539062,-0.4213794921875
5.65607418635939,-0.0430956298828125,-0.201112939453125,-0.397437475585937
5.65833997835158,-0.076614453125,-0.158017309570312,-0.335188232421875
5.66060577034376,-0.05746083984375,-0.0718260498046875,-0.244208569335937
5.66287156233595,-0.09576806640625,-0.009576806640625,-0.258573779296875
5.66874296370314,-0.272938989257812,0.847547387695312,0.181959326171875
5.67461436507032,-0.225054956054687,0.933738647460937,0.229843359375
5.68048576643751,-0.201112939453125,1.05344873046875,0.220266552734375
5.68283216650261,-0.234631762695312,1.09175595703125,0.229843359375
5.68517856656772,-0.253785375976562,1.14442839355469,0.148440502929687
5.68752496663283,-0.258573779296875,1.19231242675781,0.105344873046875
5.6898718606758,-0.28730419921875,1.23540805664062,0.067037646484375
5.69221875471876,-0.330399829101562,1.22104284667969,0.0718260498046875
5.69456564876173,-0.277727392578125,1.24019645996094,0.0526724365234375
5.69691266118578,-0.3064578125,1.24498486328125,0.067037646484375
5.69925967360983,-0.301669409179687,1.24498486328125,0.0909796630859375
5.70160668603388,-0.311246215820312,1.1875240234375,0.086191259765625
5.70383898735766,-0.368707055664062,1.18273562011719,0.148440502929687
5.70607128868145,-0.349553442382812,1.07260234375,0.158017309570312
5.70830359000524,-0.4213794921875,1.06302553710937,0.21068974609375
5.71041824001608,-0.411802685546875,0.991199487304687,0.201112939453125
5.71253289002693,-0.40222587890625,0.90021982421875,0.186747729492187
5.71464754003778,-0.411802685546875,0.794874951171875,0.253785375976562
5.71675737418492,-0.354341845703125,0.7278373046875,0.349553442382812
5.71886720833206,-0.368707055664062,0.636857641601562,0.368707055664062
5.7209770424792,-0.392649072265625,0.5746083984375,0.397437475585937
5.72635474989023,-0.086191259765625,-0.148440502929687,0.684741674804688
5.73173245730126,-0.143652099609375,-0.234631762695312,0.790086547851562
5.73711016471229,-0.0909796630859375,-0.28730419921875,0.86191259765625
5.73928081152219,-0.086191259765625,-0.40222587890625,0.895431420898437
5.74145145833209,-0.028730419921875,-0.430956298828125,0.972045874023437
5.74362210514199,-0.0143652099609375,-0.464475122070312,1.0342951171875
5.74579300086682,-0.0047884033203125,-0.4979939453125,1.16358200683594
5.74796389659165,0.124498486328125,-0.47884033203125,1.28329208984375
5.75013479231647,0.162805712890625,-0.507570751953125,1.35990654296875
5.75229866197251,0.239420166015625,-0.454898315429687,1.4939818359375
5.75446253162855,0.296881005859375,-0.450109912109375,1.51792385253906
5.75662640128458,0.339976635742188,-0.36391865234375,1.59932670898438
5.75878034364027,0.4213794921875,-0.320823022460937,1.65199914550781
5.76093428599596,0.4213794921875,-0.263362182617187,1.69988317871094
5.76308822835165,0.483628735351562,-0.186747729492187,1.69509477539062
5.76530119750855,0.502782348632812,-0.124498486328125,1.87226569824219
5.76751416666545,0.521935961914062,-0.028730419921875,2.03507141113281
5.76972713582234,0.521935961914062,0.0143652099609375,2.20266552734375
5.77193184445407,0.474051928710937,0.047884033203125,2.40377846679687
5.77413655308579,0.445321508789062,0.138863696289063,2.57137258300781
5.77634126171752,0.383072265625,0.21068974609375,2.76769711914062
5.77853616218953,0.349553442382812,0.234631762695312,3.0262708984375
5.78073106266153,0.24899697265625,0.24899697265625,3.33751711425781
5.78292596313354,0.225054956054687,0.430956298828125,3.754108203125
5.78511828057061,0.330399829101562,0.679953271484375,4.49152231445312
5.78731059800767,0.512359155273437,1.11569797363281,5.29118566894531
5.78950291544474,0.737414111328125,1.69509477539062,6.22492431640625
5.7916939079035,0.641646044921875,2.34152922363281,7.18739338378906
5.79388490036227,0.565031591796875,2.99754047851562,8.37491740722656
5.79607589282103,0.814028564453125,3.7158009765625,9.94551369628906
5.79841286276461,1.03908352050781,4.52504113769531,11.7603185546875
5.80074983270818,1.07260234375,5.33428129882812,12.6078659423828
5.80308680265176,1.04866032714844,5.89452448730469,11.9183358642578
5.80542355351981,1.47961662597656,6.03338818359375,10.3908352050781
5.80776030438786,2.1452046875,6.39251843261719,9.576806640625
5.81009705525592,2.87783039550781,6.89530078125,9.97903251953125
5.81236141088743,3.46201560058594,7.6231380859375,11.5544172119141
5.81462576651895,3.86424147949219,8.66222160644531,13.5320277832031
5.81689012215046,3.72537778320312,9.97903251953125,14.5711113037109
5.81908473429239,3.58651408691406,11.2814782226562,14.6046301269531
5.82127934643431,3.5625720703125,12.4498486328125,13.4649901367187
5.82347395857624,3.32315190429687,13.6661030761719,11.7459533447266
5.82563300273857,3.4093431640625,14.8584155029297,10.342951171875
5.8277920469009,3.30399829101562,16.4768958251953,9.87368764648437
5.82995109106323,3.01190568847656,18.6747729492187,10.7356002441406
5.83207471682278,2.89219560546875,21.2078383056641,13.1058598876953
5.83419834258233,3.00711728515625,23.8558253417969,15.8879222167969
5.83632196834188,3.29920988769531,26.6091572509766,17.4345764892578
5.84311626982843,2.54743056640625,23.0753156005859,8.85854614257812
5.84991057131498,2.49475812988281,22.3187478759766,10.9319247802734
5.85670487280152,2.09253225097656,21.988348046875,12.4498486328125
5.85903390059286,1.63284553222656,22.0266552734375,13.0579758544922
5.86136292838419,1.03908352050781,22.5629564453125,12.9286889648437
5.86369195617553,0.32561142578125,23.4535994628906,11.875240234375
5.86598826418605,-0.301669409179687,24.05693828125,10.4387192382812
5.86828457219657,-0.847547387695312,24.3250888671875,8.71968244628906
5.87058088020709,-1.38384855957031,24.2341092041016,6.91924279785156
5.872855316405,-1.79565124511719,24.2197439941406,5.08049592285156
5.87512975260291,-2.21703073730469,24.1670715576172,3.43807358398437
5.87740418880082,-2.37025964355469,23.8845557617187,1.79565124511719
5.87967296115325,-2.42772048339844,23.0992576171875,-0.100556469726563
5.88194173350568,-2.16435830078125,21.8734263671875,-1.63284553222656
5.88421050585811,-1.9536685546875,20.6332299072266,-2.40856687011719
5.88647996976598,-1.73340200195312,19.4504942871094,-2.60010300292969
5.88874943367386,-1.36469494628906,18.3778919433594,-2.37983645019531
5.89101889758173,-0.895431420898437,17.5734401855469,-2.05901342773437
5.89328823806296,-0.742202514648437,17.4202112792969,-1.69509477539062
5.89555757854419,-0.378283862304687,17.4010576660156,-1.09175595703125
5.89782691902542,-0.067037646484375,17.4585185058594,-0.474051928710937
5.90931217618689,0.545877978515625,17.9660892578125,5.1714755859375
5.92079743334835,0.4979939453125,17.9517240478516,5.91846650390625
5.93228269050982,0.349553442382812,18.0187616943359,6.44519086914062
5.93462530346556,0.181959326171875,18.2102978271484,6.66066901855469
5.93696791642129,-0.15322890625,18.6699845458984,6.79953271484375
5.93931052937702,-1.02471831054687,19.4361290771484,7.40765993652344
5.94165284176852,0.4213794921875,18.4257759765625,6.82347473144531
5.94399515416001,-1.32638771972656,18.1001645507812,4.26167895507812
5.9463374665515,-1.61369191894531,18.7370221923828,5.3247044921875
5.94868086054021,-2.01591779785156,18.8615206787109,5.746083984375
5.95102425452893,-2.4899697265625,18.4545063964844,5.74129558105469
5.95336764851764,-2.9496564453125,17.8607443847656,5.65510432128906
5.95570998440089,-3.4093431640625,17.238251953125,5.09964953613281
5.95805232028414,-3.82593425292969,16.6540667480469,4.44842668457031
5.9603946561674,-4.1754876953125,16.1081887695312,3.80199223632812
5.96262461531453,-4.52504113769531,15.4952731445312,2.987963671875
5.96485457446166,-4.75967290039062,14.9733371826172,2.21224233398438
5.9670845336088,-4.88417138671875,14.4083055908203,1.47482822265625
5.96920688441174,-4.80755693359375,14.0779057617187,0.866701000976562
5.97132923521469,-4.68784685058594,14.0060797119141,0.55545478515625
5.97345158601763,-4.5968671875,13.9629840820312,0.368707055664062
5.97557673613699,-4.41969626464844,14.020444921875,0.493205541992187
5.97770188625634,-4.060566015625,14.1880390380859,0.411802685546875
5.9798270363757,-3.74453139648437,14.5423808837891,0.320823022460937
5.98415833080929,0.703895288085937,17.7075154785156,1.58496149902344
5.98848962524288,1.19231242675781,18.1815674072266,1.75734401855469
5.99282091967648,1.6472107421875,18.5550628662109,2.07816704101562
5.99507669230017,2.13562788085937,18.6987149658203,2.40377846679687
5.99733246492386,2.53785375976562,18.6699845458984,2.76769711914062
5.99958823754756,2.84431157226562,18.4209875732422,3.12682736816406
6.00184457353931,3.05021291503906,18.1480485839844,3.38540114746094
6.00410090953106,3.09330854492187,17.851167578125,3.5625720703125
6.00635724552281,3.16992299804687,17.5830169921875,3.81156904296875
6.0086104979401,3.15555778808594,17.3435968261719,4.19464130859375
6.0108637503574,3.12203896484375,17.0945998535156,4.41490786132812
6.01311700277469,2.96402165527344,16.8839101074219,4.66869323730469
6.01535676833338,2.78685073242187,16.6875855712891,4.95120903320313
6.01759653389207,2.66235224609375,16.4912610351562,5.18584079589844
6.01983629945076,2.41814367675781,16.2662060791016,5.25287844238281
6.02206251120206,2.09732065429687,16.0603047363281,5.18105239257812
6.02428872295337,1.83395847167969,15.9310178466797,5.06613071289062
6.02651493470467,1.52750065917969,15.7777889404297,5.06134230957031
6.0287995725748,1.25935007324219,15.6149832275391,5.20499440917969
6.03108421044493,0.9576806640625,15.4617543212891,5.18584079589844
6.03336884831506,0.718260498046875,15.2702181884766,5.11880314941406
6.03564110566339,0.426167895507812,15.1074124755859,5.15232197265625
6.03791336301172,0.201112939453125,14.9350299560547,4.99909306640625
6.04018562036005,0.047884033203125,14.8105314697266,4.97036264648438
6.04471401679016,-0.292092602539062,14.8727807128906,4.74051928710937
6.04924241322027,-0.301669409179687,14.9015111328125,4.66390483398437
6.05377080965039,-0.186747729492187,15.0307980224609,4.52504113769531
6.0560325872654,-0.13407529296875,15.1122008789062,4.33350500488281
6.05829436488041,-0.0622492431640625,15.2510645751953,4.15154567871094
6.06055614249543,-0.0143652099609375,15.3947166748047,3.97437475585937
6.06281830509308,0.0239420166015625,15.5144267578125,3.74453139648437
6.06508046769074,0.129286889648437,15.5862528076172,3.600879296875
6.06734263028839,0.225054956054687,15.6724440673828,3.55299526367187
6.06957380210914,0.234631762695312,15.7682121337891,3.50032282714844
6.07180497392988,0.3064578125,15.7921541503906,3.44286198730469
6.07403614575063,0.40222587890625,15.8927106201172,3.53863005371094
6.07619776700714,0.387860668945312,15.8831338134766,3.59609089355469
6.07835938826365,0.430956298828125,15.8879222167969,3.50511123046875
6.08052100952017,0.464475122070312,15.8927106201172,3.47159240722656
6.08270916088735,0.44053310546875,15.7682121337891,3.62003291015625
6.08489731225454,0.44053310546875,15.7442701171875,3.59130249023437
6.08708546362172,0.45968671875,15.7155396972656,3.7158009765625
6.08927774199628,0.493205541992187,15.6485020507812,3.7924154296875
6.09147002037084,0.47884033203125,15.5623107910156,3.87381828613281
6.0936622987454,0.430956298828125,15.4521775146484,4.0988732421875
6.0958554597697,0.435744702148437,15.3947166748047,4.18027609863281
6.098048620794,0.368707055664062,15.2750065917969,4.15633408203125
6.1002417818183,0.387860668945312,15.2271225585937,4.16112248535156
6.10240052313774,0.330399829101562,15.1217776855469,4.07971962890625
6.10455926445718,0.3064578125,15.0212212158203,4.00310517578125
6.10671800577663,0.220266552734375,14.9733371826172,4.03662399902344
6.1088407757419,0.220266552734375,14.8727807128906,4.04141240234375
6.11096354570717,0.124498486328125,14.6908213867187,4.060566015625
6.11308631567245,0.09576806640625,14.5423808837891,4.07014282226563
6.11527146409639,0.047884033203125,14.3316911376953,4.18985290527344
6.11745661252032,0.028730419921875,14.1880390380859,4.26167895507812
6.11964176094426,-0.009576806640625,14.0491753417969,4.30956298828125
6.12182947463513,0.0,13.8911580322266,4.30477458496094
6.12401718832599,0.0239420166015625,13.7379291259766,4.26646735839844
6.12620490201685,-0.0047884033203125,13.560758203125,4.14675727539062
6.12839616113144,-0.0047884033203125,13.4218945068359,4.15633408203125
6.13058742024603,-0.028730419921875,13.3548568603516,3.94085593261719
6.13277867936061,-0.009576806640625,13.1872627441406,3.90254870605469
6.13496994900037,0.0383072265625,13.1728975341797,3.90254870605469
6.13716121864014,0.0718260498046875,13.0723410644531,3.89776030273437
6.1393524882799,0.09576806640625,13.0436106445312,3.96958635253906
6.14154616069743,0.17238251953125,12.9861498046875,3.94085593261719
6.14373983311495,0.181959326171875,12.9765729980469,3.96479794921875
6.14593350553248,0.215478149414062,12.9382657714844,3.9839515625
6.14812875922173,0.244208569335937,12.8855933349609,3.96479794921875
6.15032401291097,0.24899697265625,12.9622077880859,3.96000954589844
6.15251926660021,0.316034619140625,12.9382657714844,3.87860668945312
6.15477469520264,0.339976635742188,12.9430541748047,3.94085593261719
6.15703012380507,0.373495458984375,13.0100918212891,4.0988732421875
6.1592855524075,0.392649072265625,12.9861498046875,4.01268198242188
6.16147464528944,0.36391865234375,12.9813614013672,4.00789357910156
6.16366373817138,0.4213794921875,13.0005150146484,3.87381828613281
6.16585283105333,0.378283862304687,12.9669961914062,3.82593425292969
6.16804125260281,0.378283862304687,12.9861498046875,3.69664736328125
6.17022967415228,0.359130249023437,13.0340338378906,3.6391865234375
6.17241809570176,0.36391865234375,13.0388222412109,3.53384165039062
6.17460658485107,0.3447650390625,12.9813614013672,3.49553442382812
6.17679507400038,0.316034619140625,12.9047469482422,3.48116921386719
6.17898356314969,0.339976635742188,12.8281324951172,3.42849677734375
6.18117205490315,0.359130249023437,12.7419412353516,3.46201560058594
6.18336054665662,0.296881005859375,12.6605383789062,3.42370837402344
6.18554903841009,0.28730419921875,12.5456166992187,3.51947644042969
6.18780730804985,0.311246215820312,12.4211182128906,3.56736047363281
6.19006557768961,0.244208569335937,12.3636573730469,3.50511123046875
6.19232384732938,0.201112939453125,12.2583125,3.51947644042969
6.19451297319742,0.196324536132812,12.1864864501953,3.35188232421875
6.19670209906547,0.162805712890625,12.0715647705078,3.28484467773437
6.19889122493352,0.21068974609375,11.9662198974609,3.1794998046875
6.201076349608,0.186747729492187,11.9566430908203,3.16513459472656
6.20326147428247,0.15322890625,11.8560866210938,3.07415493164062
6.20544659895695,0.15322890625,11.7890489746094,3.01190568847656
6.20763045648734,0.177170922851562,11.7315881347656,2.93050283203125
6.20981431401772,0.1915361328125,11.7267997314453,2.95923325195312
6.2119981715481,0.21068974609375,11.6262432617187,2.84909997558594
6.21418186078421,0.229843359375,11.5544172119141,2.77248552246094
6.21636555002032,0.229843359375,11.5161099853516,2.73417829589844
6.21854923925643,0.225054956054687,11.4538607421875,2.77248552246094
6.22080110177813,0.234631762695312,11.3485158691406,2.81558115234375
6.22305296429983,0.205901342773437,11.2527478027344,2.84431157226562
6.22530482682153,0.220266552734375,11.2048637695312,2.77248552246094
6.22749594021128,0.1915361328125,11.0851536865234,2.69108266601562
6.22968705360104,0.167594116210937,11.0085392333984,2.6431986328125
6.2318781669908,0.17238251953125,10.8984059570312,2.53785375976562
6.23406912293698,0.086191259765625,10.802637890625,2.44687409667969
6.23626007888316,0.0718260498046875,10.7403886474609,2.3367408203125
6.23845103482934,0.05746083984375,10.6254669677734,2.27449157714844
6.24064194466006,0.05746083984375,10.5440641113281,2.24576115722656
6.24283285449079,0.009576806640625,10.5392757080078,2.27449157714844
6.24502376432152,-0.0239420166015625,10.4435076416016,2.29364519042969
6.24721338183454,-0.0047884033203125,10.3573163818359,2.31758720703125
6.24940299934756,-0.05746083984375,10.2998555419922,2.375048046875
6.25159261686058,-0.0383072265625,10.2567599121094,2.29843359375
6.25378292719043,-0.0909796630859375,10.189722265625,2.35110603027344
6.25597323752029,-0.076614453125,10.1705686523437,2.24097275390625
6.25816354785015,-0.0909796630859375,10.1035310058594,2.1835119140625
6.26035644010275,-0.09576806640625,10.0029745361328,2.12126267089844
6.26254933235535,-0.119710083007812,9.95509050292969,1.99676418457031
6.26474222460796,-0.119710083007812,9.883264453125,1.96803376464844
6.26693456239007,-0.124498486328125,9.85453403320312,1.88663090820312
6.26912690017219,-0.138863696289063,9.82580361328125,1.89141931152344
6.2713192379543,-0.119710083007812,9.730035546875,1.81480485839844
6.27351247308885,-0.119710083007812,9.67257470703125,1.89620771484375
6.2757057082234,-0.0718260498046875,9.61032546386719,1.89620771484375
6.27789894335795,-0.028730419921875,9.55765302734375,1.90099611816406
6.28009219444302,-0.05746083984375,9.53371101074219,1.8770541015625
6.28228544552809,-0.0526724365234375,9.50976899414063,1.86747729492187
6.28447869661316,-0.05746083984375,9.423577734375,1.81480485839844
6.28673252940396,-0.009576806640625,9.3852705078125,1.77649763183594
6.28898636219475,0.0143652099609375,9.33259807128906,1.70467158203125
6.29124019498555,-0.009576806640625,9.29907924804687,1.75734401855469
6.29335068413486,0.0047884033203125,9.270348828125,1.70945998535156
6.29546117328416,0.047884033203125,9.20331118164062,1.74297880859375
6.29757166243347,0.047884033203125,9.13148513183594,1.69030637207031
6.2997548488484,0.0430956298828125,9.117119921875,1.63763393554687
6.30193803526334,0.0335188232421875,9.01656345214844,1.66636435546875
6.30412122167827,0.0383072265625,8.95431420898437,1.58496149902344
6.30630488129199,0.119710083007812,8.94952580566406,1.44130939941406
6.3084885409057,0.0143652099609375,8.85375773925781,1.47003981933594
6.31067220051942,0.0335188232421875,8.82023891601562,1.45088620605469
6.31285590505501,0.047884033203125,8.80108530273437,1.4173673828125
6.3150396095906,0.105344873046875,8.75798967285156,1.37906015625
6.3172233141262,0.13407529296875,8.70531723632812,1.38863696289062
6.31940722688661,0.158017309570312,8.68616362304688,1.44609780273437
6.32159113964703,0.186747729492187,8.59997236328125,1.38863696289062
6.32377505240744,0.24899697265625,8.52814631347656,1.4939818359375
6.3259593923597,0.225054956054687,8.52814631347656,1.51792385253906
6.32814373231195,0.239420166015625,8.49462749023438,1.51313544921875
6.33032807226421,0.258573779296875,8.43237824707031,1.56101948242187
6.33251130056282,0.21068974609375,8.46110866699219,1.56101948242187
6.33469452886144,0.24899697265625,8.44674345703125,1.61369191894531
6.33687775716005,0.244208569335937,8.37012900390625,1.60411511230469
6.33903796287566,0.229843359375,8.34139858398438,1.5705962890625
6.34119816859127,0.205901342773437,8.35576379394531,1.51792385253906
6.34335837430687,0.220266552734375,8.29351455078125,1.44130939941406
6.34662961094696,0.196324536132812,8.25520732421875,1.37906015625
6.34990084758706,0.143652099609375,8.197746484375,1.23061965332031
6.35317208422715,0.129286889648437,8.21211169433594,1.22583125
6.35535442374538,0.148440502929687,8.18816967773437,1.1875240234375
6.35753676326361,0.0814028564453125,8.20253488769531,1.15879360351562
6.35971910278185,0.1149216796875,8.13549724121094,1.20188923339844
6.36189956784261,0.0909796630859375,8.22168850097656,1.20667763671875
6.36408003290338,0.09576806640625,8.22647690429687,1.24498486328125
6.36626049796414,0.105344873046875,8.24563051757812,1.4173673828125
6.36844082522108,0.148440502929687,8.25999572753906,1.43173259277344
6.37062115247803,0.13407529296875,8.28393774414062,1.42215578613281
6.37280147973497,0.13407529296875,8.25520732421875,1.35511813964844
6.37498178420546,0.143652099609375,8.23126530761719,1.35511813964844
6.37716208867595,0.119710083007812,8.19295808105469,1.28808049316406
6.37934239314644,0.13407529296875,8.24563051757812,1.2641384765625
6.38161032901883,0.143652099609375,8.20732329101562,1.24498486328125
6.38387826489123,0.162805712890625,8.25520732421875,1.22104284667969
6.38614620076363,0.177170922851562,8.23126530761719,1.21625444335937
6.38841828822022,0.177170922851562,8.25041892089844,1.20667763671875
6.39069037567682,0.167594116210937,8.21211169433594,1.29765729980469
6.39296246313342,0.201112939453125,8.26478413085937,1.33117612304687
6.39523594305963,0.21068974609375,8.24084211425781,1.42694418945312
6.39750942298585,0.24899697265625,8.30309135742187,1.51313544921875
6.39978290291206,0.272938989257812,8.30309135742187,1.61369191894531
6.40198297680529,0.277727392578125,8.36534060058594,1.65199914550781
6.40418305069852,0.311246215820312,8.37491740722656,1.68072956542969
6.40638312459175,0.263362182617187,8.37491740722656,1.60411511230469
6.40855627411432,0.277727392578125,8.39407102050781,1.5705962890625
6.4107294236369,0.277727392578125,8.41322463378906,1.47003981933594
6.41290257315948,0.335188232421875,8.45153186035156,1.44609780273437
6.41513779722632,0.3064578125,8.42758984375,1.42694418945312
6.41737302129316,0.36391865234375,8.44674345703125,1.39342536621094
6.41960824536,0.349553442382812,8.45153186035156,1.31202250976562
6.42631274926627,0.301669409179687,8.36055219726562,1.43173259277344
6.43301725317253,0.263362182617187,8.40364782714844,1.47961662597656
6.43972175707879,0.225054956054687,8.37491740722656,1.42215578613281
6.44195687394077,0.181959326171875,8.43237824707031,1.42215578613281
6.44419199080274,0.17238251953125,8.45153186035156,1.32159931640625
6.44642710766471,0.17238251953125,8.47547387695312,1.25935007324219
6.44861611927496,0.143652099609375,8.48505068359375,1.29765729980469
6.4508051308852,0.167594116210937,8.5425115234375,1.32638771972656
6.45299414249545,0.143652099609375,8.53772312011719,1.37427175292969
6.4551837870267,0.119710083007812,8.53772312011719,1.37906015625
6.45737343155794,0.124498486328125,8.56645354003906,1.3407529296875
6.45956307608919,0.0909796630859375,8.57124194335938,1.34554133300781
6.46167825577669,0.138863696289063,8.57124194335938,1.35032973632813
6.46379343546419,0.119710083007812,8.64306799316406,1.35990654296875
6.46590861515168,0.09576806640625,8.64306799316406,1.37906015625
6.46809182608918,0.105344873046875,8.69095202636719,1.34554133300781
6.47027503702668,0.167594116210937,8.71010563964844,1.29765729980469
6.47245824796418,0.105344873046875,8.71010563964844,1.32159931640625
6.47464283791644,0.158017309570312,8.74362446289062,1.24977326660156
6.47682742786871,0.158017309570312,8.7723548828125,1.22104284667969
6.47901201782097,0.177170922851562,8.7723548828125,1.21146604003906
6.48119727715256,0.196324536132812,8.80587370605469,1.2641384765625
6.48338253648415,0.177170922851562,8.8489693359375,1.25935007324219
6.48556779581575,0.186747729492187,8.86812294921875,1.32638771972656
6.48775286623675,0.225054956054687,8.82502731933594,1.32159931640625
6.48993793665776,0.1915361328125,8.83460412597656,1.39342536621094
6.49212300707877,0.201112939453125,8.80108530273437,1.47482822265625
6.49540137800976,0.181959326171875,8.83460412597656,1.38863696289062
6.49867974894076,0.186747729492187,8.80587370605469,1.41257897949219
6.50195811987175,0.177170922851562,8.76756647949219,1.4173673828125
6.50414485164258,0.143652099609375,8.76277807617187,1.50834704589844
6.50633158341341,0.17238251953125,8.78672009277344,1.58974990234375
6.50851831518424,0.162805712890625,8.74841286621094,1.62326872558594
6.51070545385611,0.148440502929687,8.74841286621094,1.65199914550781
6.51289259252798,0.158017309570312,8.71489404296875,1.61369191894531
6.51507973119985,0.143652099609375,8.73404765625,1.54186586914062
6.51937216685524,-0.0526724365234375,8.63827958984375,1.26892687988281
6.52366460251063,-0.067037646484375,8.64785639648438,1.30723410644531
6.52795703816602,-0.1149216796875,8.68137521972656,1.36469494628906
6.530144213459,-0.1149216796875,8.67658681640625,1.31681091308594
6.53233138875197,-0.076614453125,8.65264479980469,1.29765729980469
6.53451856404494,-0.129286889648437,8.657433203125,1.26892687988281
6.53671001581361,-0.167594116210937,8.68616362304688,1.1109095703125
6.53890146758228,-0.1915361328125,8.71968244628906,1.12048637695313
6.54109291935094,-0.225054956054687,8.71968244628906,1.13963999023438
6.54328528105884,-0.234631762695312,8.72925925292969,1.09654436035156
6.54547764276674,-0.220266552734375,8.74841286621094,1.13006318359375
6.54767000447464,-0.263362182617187,8.7723548828125,1.149216796875
6.54986228442256,-0.263362182617187,8.76756647949219,1.12527478027344
6.55205456437048,-0.24899697265625,8.75320126953125,1.06302553710937
6.5542468443184,-0.2681505859375,8.74362446289062,1.00077629394531
6.55643913750417,-0.28730419921875,8.74362446289062,1.10133276367187
6.55863143068993,-0.301669409179687,8.76756647949219,1.04387192382812
6.5608237238757,-0.28730419921875,8.7723548828125,1.0342951171875
6.56301602861745,-0.296881005859375,8.75320126953125,1.1109095703125
6.56520833335921,-0.2681505859375,8.82502731933594,1.11569797363281
6.56740063810096,-0.28730419921875,8.79629689941406,1.15879360351562
6.56958564870751,-0.272938989257812,8.80108530273437,1.17315881347656
6.57177065931407,-0.244208569335937,8.80587370605469,1.23061965332031
6.57395566992062,-0.263362182617187,8.80108530273437,1.23061965332031
6.57844268741736,-0.330399829101562,8.74841286621094,1.27850368652344
6.5829297049141,-0.32561142578125,8.68616362304688,1.25456166992187
6.58741672241084,-0.320823022460937,8.69095202636719,1.31202250976562
6.58968346448984,-0.354341845703125,8.60476076660156,1.24977326660156
6.59195020656883,-0.32561142578125,8.64306799316406,1.21625444335937
6.59421694864782,-0.339976635742188,8.59518395996094,1.22104284667969
6.5964838499065,-0.378283862304687,8.55687673339844,1.23061965332031
6.59875075116518,-0.354341845703125,8.57124194335938,1.24498486328125
6.60101765242386,-0.359130249023437,8.57603034667969,1.23540805664062
6.60328455335701,-0.407014282226562,8.5425115234375,1.22583125
6.60555145429017,-0.36391865234375,8.53772312011719,1.22583125
6.60781835522332,-0.349553442382812,8.53772312011719,1.25456166992187
6.61008527568774,-0.339976635742188,8.50899270019531,1.35511813964844
6.61235219615215,-0.368707055664062,8.51856950683594,1.26892687988281
6.61461911661656,-0.359130249023437,8.49941589355469,1.33596452636719
6.61696318334833,-0.392649072265625,8.55208833007812,1.25935007324219
6.6193072500801,-0.339976635742188,8.48505068359375,1.2641384765625
6.62165131681187,-0.354341845703125,8.43716665039062,1.25935007324219
6.62867273760181,-0.392649072265625,8.14986245117187,1.12527478027344
6.63569415839174,-0.407014282226562,8.11634362792969,1.16837041015625
6.64271557918168,-0.387860668945312,8.01578715820312,1.21625444335937
6.64505463799244,-0.411802685546875,8.02057556152344,1.08217915039062
6.64739369680321,-0.40222587890625,7.99184514160156,1.13485158691406
6.64973275561398,-0.416591088867187,7.93438430175781,1.12527478027344
6.65192452264957,-0.411802685546875,7.92480749511719,1.14442839355469
6.65411628968516,-0.383072265625,7.86255825195312,1.09654436035156
6.65630805672075,-0.378283862304687,7.9295958984375,1.11569797363281
6.65849792651243,-0.311246215820312,7.92001909179687,1.10612116699219
6.6606877963041,-0.301669409179687,7.94874951171875,1.149216796875
6.66287766609577,-0.258573779296875,7.9295958984375,1.149216796875
6.66506708265393,-0.196324536132812,7.967903125,1.14442839355469
6.66725649921209,-0.186747729492187,7.97747993164062,1.23540805664062
6.66944591577025,-0.167594116210937,8.03494077148437,1.20188923339844
6.67163523944647,-0.177170922851562,8.12113203125,1.11569797363281
6.67382456312269,-0.110133276367187,8.09719001464844,1.10133276367187
6.67601388679891,-0.0718260498046875,8.20732329101562,1.03908352050781
6.68262977141262,-0.272938989257812,9.14106193847656,0.857124194335937
6.68924565602633,-0.263362182617187,9.26556042480469,0.842758984375
6.69586154064004,-0.24899697265625,9.31823286132813,0.794874951171875
6.69796217089178,-0.253785375976562,9.34217487792969,0.780509741210937
6.70006280114351,-0.253785375976562,9.40921252441406,0.780509741210937
6.70216343139524,-0.205901342773437,9.47146176757813,0.737414111328125
6.70420082733708,-0.253785375976562,9.53371101074219,0.76614453125
6.70623822327892,-0.253785375976562,9.55286462402344,0.770932934570312
6.70827561922076,-0.277727392578125,9.60074865722656,0.7278373046875
6.71031170602632,-0.253785375976562,9.6917283203125,0.818816967773437
6.71234779283188,-0.225054956054687,9.730035546875,0.890643017578125
6.71438387963745,-0.21068974609375,9.80186159667969,0.948103857421875
6.71641888907755,-0.177170922851562,9.82580361328125,1.05823713378906
6.71845389851766,-0.1149216796875,9.93593688964844,1.02950671386719
6.72048890795777,-0.124498486328125,10.0029745361328,1.13006318359375
6.72258881724596,-0.15322890625,10.0748005859375,1.12527478027344
6.72468872653416,-0.205901342773437,10.1609918457031,1.16837041015625
6.72678863582235,-0.17238251953125,10.2519715087891,1.23061965332031
6.72888949053156,-0.215478149414062,10.342951171875,1.28808049316406
6.73099034524077,-0.205901342773437,10.3860468017578,1.2641384765625
6.73309119994997,-0.263362182617187,10.3621047851562,1.16358200683594
6.7351919316123,-0.296881005859375,10.4004120117187,1.02950671386719
6.73729266327462,-0.258573779296875,10.3573163818359,0.780509741210937
6.73939339493695,-0.292092602539062,10.3668931884766,0.545877978515625
6.74149618541004,-0.277727392578125,10.3237975585937,0.47884033203125
6.74359897588312,-0.28730419921875,10.3333743652344,0.435744702148437
6.74570176635621,-0.272938989257812,10.3285859619141,0.349553442382812
6.747798597646,-0.263362182617187,10.3525279785156,0.383072265625
6.74989542893578,-0.272938989257812,10.3525279785156,0.507570751953125
6.75199226022556,-0.239420166015625,10.4722380615234,0.550666381835937
6.75429904108372,-0.229843359375,10.496180078125,0.598550415039062
6.75660582194188,-0.186747729492187,10.6015249511719,0.656011254882812
6.75891260280005,-0.148440502929687,10.6350437744141,0.70868369140625
6.76120872971097,-0.124498486328125,10.6972930175781,0.76614453125
6.76350485662189,-0.028730419921875,10.7643306640625,0.675164868164063
6.76580098353281,-0.0047884033203125,10.8074262939453,0.679953271484375
6.76808463097567,0.0430956298828125,10.8217915039062,0.608127221679687
6.77036827841852,0.158017309570312,10.8648871337891,0.55545478515625
6.77265192586137,0.15322890625,10.9079827636719,0.483628735351562
6.77492666869992,0.177170922851562,10.955866796875,0.493205541992187
6.77720141153846,0.162805712890625,10.9798088134766,0.512359155273437
6.779476154377,0.17238251953125,11.0899420898437,0.426167895507812
6.78167399454627,0.110133276367187,11.0947304931641,0.483628735351562
6.78387183471554,0.100556469726563,11.1809217529297,0.512359155273437
6.78606967488481,0.110133276367187,11.2479593994141,0.536301171875
6.78826652579626,0.0718260498046875,11.3197854492187,0.512359155273437
6.79046337670772,0.0622492431640625,11.3580926757812,0.565031591796875
6.79266022761917,0.047884033203125,11.4011883056641,0.598550415039062
6.79485488777542,0.05746083984375,11.4203419189453,0.569819995117188
6.79704954793167,0.0718260498046875,11.4442839355469,0.560243188476563
6.79924420808792,0.0526724365234375,11.4394955322266,0.507570751953125
6.81080743850241,0.1915361328125,10.342951171875,0.598550415039062
6.82237066891689,0.1915361328125,10.3046439453125,0.55545478515625
6.83393389933138,0.1915361328125,10.2471831054687,0.521935961914062
6.83628022897548,0.244208569335937,10.2040874755859,0.51714755859375
6.83862655861957,0.1915361328125,10.1322614257812,0.55545478515625
6.84097288826367,0.138863696289063,10.1226846191406,0.531512768554687
6.8432422151951,0.158017309570312,10.0556469726563,0.588973608398437
6.84551154212653,0.15322890625,9.98382092285156,0.608127221679687
6.84778086905796,0.17238251953125,9.95509050292969,0.679953271484375
6.85012218904495,0.205901342773437,9.94072529296875,0.67037646484375
6.85246350903193,0.21068974609375,9.87368764648437,0.742202514648437
6.85480482901891,0.17238251953125,9.81143840332031,0.646434448242187
6.85730307674026,0.177170922851562,9.79707319335937,0.694318481445312
6.85980132446161,0.15322890625,9.79707319335937,0.684741674804688
6.86229957218296,0.177170922851562,9.73482395019531,0.718260498046875
6.86480329277757,0.13407529296875,9.68215151367187,0.751779321289062
6.86730701337218,0.158017309570312,9.70130512695312,0.814028564453125
6.86981073396679,0.1149216796875,9.6151138671875,0.814028564453125
6.8723167980944,0.105344873046875,9.63905588378906,0.761356127929687
6.874822862222,0.105344873046875,9.60553706054687,0.718260498046875
6.8773289263496,0.0814028564453125,9.57201823730469,0.770932934570312
6.88948014602191,-0.047884033203125,9.28471403808594,1.13963999023438
6.90163136569423,-0.119710083007812,9.33738647460937,1.11569797363281
6.91378258536654,-0.0383072265625,9.33259807128906,1.18273562011719
6.9162102504056,-0.0143652099609375,9.37090529785156,1.20667763671875
6.91863791544466,-0.067037646484375,9.36132849121094,1.21625444335937
6.92106558048372,-0.086191259765625,9.38048210449219,1.21146604003906
6.92349325789258,-0.067037646484375,9.39963571777344,1.20667763671875
6.92592093530144,-0.1149216796875,9.39963571777344,1.24977326660156
6.9283486127103,-0.0622492431640625,9.37569370117187,1.13006318359375
6.93313702091343,-0.0814028564453125,9.47625017089844,1.41257897949219
6.93792542911655,-0.0814028564453125,9.38048210449219,1.48440502929687
6.94271383731968,-0.0526724365234375,9.41878933105469,1.455674609375
6.95573265836461,0.009576806640625,9.60553706054687,0.93852705078125
6.96875147940954,0.009576806640625,9.66299790039063,0.97683427734375
6.98177030045447,-0.009576806640625,9.70130512695312,0.986411083984375
6.98418612451047,-0.0143652099609375,9.6917283203125,0.9576806640625
6.98660194856646,-0.0622492431640625,9.70609353027344,0.90021982421875
6.98901777262246,-0.0718260498046875,9.6917283203125,0.93852705078125
6.99143293798704,-0.067037646484375,9.730035546875,0.9193734375
6.99384810335162,-0.076614453125,9.76355437011719,0.928950244140625
6.99626326871621,-0.09576806640625,9.74440075683594,0.885854614257812
6.99890994156777,-0.0909796630859375,9.73482395019531,0.924161840820312
7.00155661441933,-0.0909796630859375,9.80665,0.948103857421875
7.0042032872709,-0.1149216796875,9.77791958007812,0.909796630859375
7.00685485318887,-0.110133276367187,9.79707319335937,0.914585034179687
7.00950641910684,-0.158017309570312,9.87847604980469,0.90021982421875
7.01215798502481,-0.143652099609375,9.8449572265625,0.943315454101562
7.01478008246405,-0.177170922851562,9.83538041992187,0.952892260742187
7.01740217990329,-0.138863696289063,9.85453403320312,0.876277807617187
7.02002427734253,-0.186747729492187,9.85453403320312,0.833182177734375
7.02261597308906,-0.138863696289063,9.81622680664062,0.794874951171875
7.02520766883559,-0.1915361328125,9.84016882324219,0.814028564453125
7.02779936458212,-0.186747729492187,9.79228479003906,0.857124194335937
7.03039063438464,-0.215478149414062,9.86889924316406,0.866701000976562
7.03298190418717,-0.205901342773437,9.73961235351562,0.8810662109375
7.03557317398969,-0.220266552734375,9.81143840332031,0.86191259765625
7.04075306770714,-0.201112939453125,9.59117185058594,0.790086547851562
7.04593296142459,-0.138863696289063,9.51455739746094,0.7278373046875
7.05111285514204,-0.15322890625,9.56244143066406,0.7278373046875
7.05366754096018,-0.186747729492187,9.46667336425781,0.78529814453125
7.05622222677832,-0.167594116210937,9.47625017089844,0.679953271484375
7.05877691259646,-0.148440502929687,9.45709655761719,0.70868369140625
7.077653532361,-0.1149216796875,9.91199487304687,0.493205541992187
7.09653015212555,-0.1149216796875,9.93593688964844,0.536301171875
7.11540677189009,-0.177170922851562,9.95030209960937,0.603338818359375
7.11790137551423,-0.124498486328125,9.98382092285156,0.679953271484375
7.12039597913836,-0.119710083007812,10.0029745361328,0.627280834960937
7.12289058276249,-0.124498486328125,10.0317049560547,0.679953271484375
7.12538527894305,-0.119710083007812,10.0700121826172,0.627280834960937
7.12787997512361,-0.09576806640625,10.0556469726563,0.6512228515625
7.13037467130417,-0.0622492431640625,10.1226846191406,0.684741674804688
7.13279939059671,-0.0526724365234375,10.1370498291016,0.742202514648437
7.13522410988925,-0.0143652099609375,10.1274730224609,0.818816967773437
7.13764882918179,0.0143652099609375,10.1274730224609,0.890643017578125
7.14007364830071,0.028730419921875,10.1705686523437,0.866701000976562
7.14249846741963,0.09576806640625,10.1609918457031,0.93852705078125
7.14492328653856,0.0909796630859375,10.2280294921875,0.876277807617187
7.14741152102206,0.0909796630859375,10.2519715087891,0.82360537109375
7.14989975550557,0.124498486328125,10.2136642822266,0.86191259765625
7.15238798998908,0.17238251953125,10.2232410888672,0.847547387695312
7.15487593172085,0.13407529296875,10.2519715087891,0.761356127929687
7.15736387345262,0.181959326171875,10.2567599121094,0.814028564453125
7.1598518151844,0.167594116210937,10.2854903320312,0.76614453125
7.16233976114793,0.177170922851562,10.2854903320312,0.818816967773437
7.16482770711147,0.220266552734375,10.3094323486328,0.852335791015625
7.16731565307501,0.186747729492187,10.2567599121094,0.799663354492188
7.16974337345261,0.225054956054687,10.2615483154297,0.866701000976562
7.17217109383022,0.253785375976562,10.2807019287109,0.857124194335937
7.17459881420783,0.21068974609375,10.2471831054687,0.943315454101562
7.17702582777119,0.234631762695312,10.2232410888672,0.8810662109375
7.17945284133455,0.1915361328125,10.2184526855469,0.890643017578125
7.18187985489791,0.177170922851562,10.189722265625,0.847547387695312
7.18430181789704,0.17238251953125,10.1514150390625,0.82360537109375
7.18672378089617,0.148440502929687,10.1131078125,0.871489404296875
7.1891457438953,0.129286889648437,10.0652237792969,0.794874951171875
7.19156747045779,0.0622492431640625,10.0556469726563,0.814028564453125
7.19398919702029,0.0430956298828125,10.0077629394531,0.770932934570312
7.19641092358279,0.0526724365234375,9.95030209960937,0.723048901367187
7.19883506778852,0.0239420166015625,9.94551369628906,0.751779321289062
7.20125921199425,-0.009576806640625,9.95509050292969,0.775721337890625
7.20368335619997,-0.0335188232421875,9.86411083984375,0.751779321289062
7.20610832017567,-0.0622492431640625,9.79228479003906,0.742202514648437
7.20853328415137,-0.067037646484375,9.81143840332031,0.76614453125
7.21095824812707,-0.047884033203125,9.81143840332031,0.713472094726562
7.21338288679895,-0.0718260498046875,9.75876596679687,0.675164868164063
7.21580752547083,-0.119710083007812,9.77791958007812,0.70868369140625
7.21823216414271,-0.129286889648437,9.76355437011719,0.70868369140625
7.22087914471996,-0.124498486328125,9.79707319335937,0.627280834960937
7.22352612529721,-0.148440502929687,9.81143840332031,0.636857641601562
7.22617310587447,-0.110133276367187,9.7683427734375,0.603338818359375
7.22882088506284,-0.158017309570312,9.77313117675781,0.51714755859375
7.23146866425121,-0.110133276367187,9.77313117675781,0.536301171875
7.23411644343958,-0.138863696289063,9.81622680664062,0.526724365234375
7.23671761645389,-0.186747729492187,9.82101520996094,0.588973608398437
7.23931878946821,-0.220266552734375,9.84016882324219,0.569819995117188
7.24191996248253,-0.234631762695312,9.8449572265625,0.51714755859375
7.24457499595693,-0.167594116210937,9.883264453125,0.521935961914062
7.24723002943132,-0.181959326171875,9.85453403320312,0.454898315429687
7.24988506290571,-0.162805712890625,9.8449572265625,0.407014282226562
7.25254046345909,-0.17238251953125,9.83059201660156,0.469263525390625
7.25519586401247,-0.17238251953125,9.83538041992187,0.474051928710937
7.25785126456585,-0.201112939453125,9.82101520996094,0.521935961914062
7.26050652883451,-0.129286889648437,9.85453403320312,0.445321508789062
7.26316179310317,-0.129286889648437,9.84016882324219,0.469263525390625
7.26581705737183,-0.1915361328125,9.85932243652344,0.407014282226562
7.26847233102634,-0.143652099609375,9.80665,0.387860668945312
7.27112760468086,-0.220266552734375,9.82101520996094,0.411802685546875
7.27378287833537,-0.1915361328125,9.83538041992187,0.359130249023437
7.28679622875855,0.0335188232421875,10.036493359375,0.387860668945312
7.29980957918172,0.0383072265625,10.0508585693359,0.3447650390625
7.3128229296049,0.0430956298828125,10.0412817626953,0.368707055664062
7.31543748076592,0.0718260498046875,10.0173397460938,0.392649072265625
7.31805203192695,0.0718260498046875,10.0221281494141,0.40222587890625
7.32066658308798,0.05746083984375,10.0173397460938,0.445321508789062
7.32712456396363,0.0383072265625,10.0077629394531,0.330399829101562
7.33358254483928,0.067037646484375,10.0077629394531,0.339976635742188
7.34004052571493,0.0814028564453125,10.0125513427734,0.272938989257812
7.34262438877916,0.0814028564453125,9.95987890625,0.316034619140625
7.3452082518434,0.0814028564453125,9.9981861328125,0.311246215820312
7.34779211490763,0.05746083984375,10.0173397460938,0.263362182617187
7.35037599826268,0.0430956298828125,10.0460701660156,0.28730419921875
7.35295988161772,0.0383072265625,10.0221281494141,0.234631762695312
7.35554376497277,0.0383072265625,10.0269165527344,0.24899697265625
7.35805354958648,0.076614453125,9.9981861328125,0.282515795898438
7.36056333420019,0.0335188232421875,9.98860932617187,0.301669409179687
7.3630731188139,0.0047884033203125,9.97903251953125,0.24899697265625
7.36558215548925,0.05746083984375,9.97424411621094,0.244208569335937
7.3680911921646,0.05746083984375,10.036493359375,0.253785375976562
7.37060022883995,0.0909796630859375,10.0125513427734,0.258573779296875
7.37811748513334,-0.0143652099609375,10.0269165527344,0.263362182617187
7.38563474142674,0.0335188232421875,10.0173397460938,0.320823022460937
7.39315199772014,-0.0047884033203125,10.0748005859375,0.32561142578125
7.39565797569323,-0.0239420166015625,10.036493359375,0.282515795898438
7.39816395366632,0.0,10.0556469726563,0.373495458984375
7.40066993163941,0.01915361328125,10.0987426025391,0.311246215820312
7.40317723719497,0.01915361328125,10.0604353759766,0.354341845703125
7.40568454275052,0.0718260498046875,10.0604353759766,0.378283862304687
7.40819184830607,0.0622492431640625,10.0317049560547,0.36391865234375
7.41069939569648,0.0335188232421875,10.0748005859375,0.387860668945312
7.41320694308688,0.067037646484375,10.0700121826172,0.40222587890625
7.41571449047728,0.0526724365234375,10.0748005859375,0.359130249023437
7.41822222512356,0.047884033203125,10.0460701660156,0.354341845703125
7.42072995976983,0.110133276367187,10.0317049560547,0.454898315429687
7.4232376944161,0.0909796630859375,10.0556469726563,0.445321508789062
7.42574573635404,0.143652099609375,10.0748005859375,0.40222587890625
7.42825377829198,0.110133276367187,10.0939541992188,0.454898315429687
7.43076182022992,0.129286889648437,10.0891657958984,0.426167895507812
7.43331699988125,0.1149216796875,10.0700121826172,0.44053310546875
7.43587217953259,0.138863696289063,10.0795889892578,0.4213794921875
7.43842735918392,0.148440502929687,10.0843773925781,0.44053310546875
7.44094088395966,0.162805712890625,10.0556469726563,0.435744702148437
7.44345440873541,0.196324536132812,10.0652237792969,0.454898315429687
7.44596793351116,0.148440502929687,10.0508585693359,0.469263525390625
7.44843185994345,0.215478149414062,10.0604353759766,0.411802685546875
7.45089578637573,0.181959326171875,10.0748005859375,0.541089575195312
7.45335971280802,0.17238251953125,10.0652237792969,0.545877978515625
7.45578418730889,0.201112939453125,10.036493359375,0.512359155273437
7.45820866180975,0.17238251953125,10.0652237792969,0.483628735351562
7.46063313631062,0.162805712890625,10.0700121826172,0.4979939453125
7.46305922208536,0.1915361328125,10.0748005859375,0.435744702148437
7.46548530786011,0.17238251953125,10.0460701660156,0.426167895507812
7.46791139363485,0.201112939453125,10.0700121826172,0.469263525390625
7.47039870027547,0.181959326171875,10.0652237792969,0.469263525390625
7.47288600691609,0.215478149414062,10.0317049560547,0.430956298828125
7.47537331355672,0.201112939453125,10.0748005859375,0.4213794921875
7.47786207104369,0.215478149414062,10.0508585693359,0.392649072265625
7.48035082853066,0.201112939453125,10.0604353759766,0.430956298828125
7.48283958601763,0.201112939453125,10.0221281494141,0.373495458984375
7.48532857250851,0.177170922851562,10.0460701660156,0.445321508789062
7.48781755899939,0.186747729492187,10.0269165527344,0.354341845703125
7.49030654549027,0.181959326171875,10.0221281494141,0.373495458984375
7.49279555216345,0.205901342773437,10.0460701660156,0.392649072265625
7.49528455883663,0.196324536132812,10.0604353759766,0.416591088867187
7.4977735655098,0.181959326171875,10.0795889892578,0.316034619140625
7.50024022467141,0.21068974609375,10.0508585693359,0.368707055664062
7.50270688383301,0.158017309570312,10.0652237792969,0.282515795898438
7.50517354299462,0.177170922851562,10.0077629394531,0.311246215820312
7.50769753346409,0.181959326171875,9.98860932617187,0.320823022460937
7.51022152393357,0.129286889648437,10.0412817626953,0.32561142578125
7.51274551440305,0.138863696289063,10.0460701660156,0.368707055664062
7.51524825382363,0.09576806640625,10.0221281494141,0.368707055664062
7.51775099324421,0.110133276367187,10.0317049560547,0.354341845703125
7.52025373266478,0.09576806640625,10.0173397460938,0.407014282226562
7.52275535370428,0.110133276367187,10.036493359375,0.320823022460937
7.52525697474377,0.0718260498046875,10.0077629394531,0.349553442382812
7.52775859578327,0.05746083984375,10.0939541992188,0.3447650390625
7.53026015730671,0.067037646484375,10.1083194091797,0.335188232421875
7.53276171883015,0.0383072265625,10.0508585693359,0.3447650390625
7.53526328035359,0.0718260498046875,10.0556469726563,0.32561142578125
7.53776481990437,0.0383072265625,10.0795889892578,0.392649072265625
7.54026635945516,0.028730419921875,10.0700121826172,0.40222587890625
7.54276789900594,0.0239420166015625,10.0795889892578,0.335188232421875
7.54519651185316,0.047884033203125,10.1131078125,0.359130249023437
7.54762512470038,0.0335188232421875,10.0556469726563,0.378283862304687
7.5500537375476,0.0383072265625,10.0604353759766,0.387860668945312
7.55240983028849,0.0335188232421875,10.0317049560547,0.301669409179687
7.55476592302937,0.0,10.0412817626953,0.292092602539062
7.55712201577026,0.009576806640625,10.0652237792969,0.320823022460937
7.56312676718626,0.0,10.0077629394531,0.339976635742188
7.56913151860227,0.009576806640625,9.97903251953125,0.21068974609375
7.57513627001827,0.0047884033203125,10.0173397460938,0.205901342773437
7.57756329996619,0.01915361328125,9.98382092285156,0.253785375976562
7.57999032991411,0.009576806640625,10.0077629394531,0.272938989257812
7.58241735986203,0.0047884033203125,9.9981861328125,0.244208569335937
7.5848458141806,0.01915361328125,9.96466730957031,0.292092602539062
7.58727426849917,0.0383072265625,9.95987890625,0.215478149414062
7.58970272281774,0.0047884033203125,9.98860932617187,0.234631762695312
7.59213301784811,0.028730419921875,10.0221281494141,0.272938989257812
7.59456331287849,0.0143652099609375,9.98860932617187,0.2681505859375
7.59699360790886,0.01915361328125,9.97424411621094,0.253785375976562
7.5994240537639,0.01915361328125,9.97903251953125,0.2681505859375
7.60185449961894,0.0,9.96945571289062,0.205901342773437
7.60428494547397,-0.0047884033203125,9.97903251953125,0.186747729492187
7.60677564501824,-0.0383072265625,10.0221281494141,0.105344873046875
7.60926634456251,-0.0143652099609375,10.0173397460938,0.110133276367187
7.61175704410677,-0.009576806640625,10.0556469726563,0.09576806640625
7.61423016139192,0.0047884033203125,9.97903251953125,0.047884033203125
7.61670327867707,-0.047884033203125,10.0412817626953,0.067037646484375
7.61917639596222,-0.028730419921875,10.0843773925781,0.110133276367187
7.621625949467,0.009576806640625,10.1274730224609,0.143652099609375
7.62407550297178,0.009576806640625,10.0700121826172,0.0814028564453125
7.62652505647656,0.0430956298828125,10.0939541992188,0.1149216796875
7.62895606255295,0.009576806640625,10.1083194091797,0.067037646484375
7.63138706862934,0.0335188232421875,10.0987426025391,0.009576806640625
7.63381807470574,0.047884033203125,10.1418382324219,0.124498486328125
7.63624795100782,0.0239420166015625,10.1514150390625,0.0909796630859375
7.6386778273099,0.0143652099609375,10.1131078125,0.110133276367187
7.64110770361199,0.0430956298828125,10.0939541992188,0.0718260498046875
7.64375788091234,0.0239420166015625,10.1083194091797,0.100556469726563
7.64640805821269,0.067037646484375,10.1131078125,0.0383072265625
7.64905823551305,0.047884033203125,10.1514150390625,0.0622492431640625
7.65171094721009,0.047884033203125,10.1370498291016,0.110133276367187
7.65436365890714,0.0526724365234375,10.1083194091797,0.086191259765625
7.65701637060419,0.0718260498046875,10.0987426025391,0.05746083984375
7.6596699145495,0.076614453125,10.0987426025391,0.129286889648437
7.66232345849482,0.067037646484375,10.0795889892578,0.0718260498046875
7.66497700244013,0.105344873046875,10.0795889892578,0.124498486328125
7.66756329595142,0.067037646484375,10.0269165527344,0.1149216796875
7.6701495894627,0.129286889648437,10.0460701660156,0.110133276367187
7.67273588297399,0.105344873046875,10.0795889892578,0.086191259765625
7.67532101198874,0.105344873046875,10.0939541992188,0.186747729492187
7.67790614100349,0.119710083007812,10.0939541992188,0.181959326171875
7.68049127001824,0.124498486328125,10.0748005859375,0.220266552734375
7.68307618277866,0.124498486328125,10.0460701660156,0.119710083007812
7.68566109553908,0.15322890625,9.99339772949219,0.129286889648437
7.68824600829949,0.105344873046875,10.0604353759766,0.119710083007812
7.69082885465366,0.0814028564453125,10.0843773925781,0.124498486328125
7.69341170100783,0.0814028564453125,10.0748005859375,0.17238251953125
7.695994547362,0.09576806640625,10.0604353759766,0.143652099609375
7.70840596674135,0.0047884033203125,10.0077629394531,0.110133276367187
7.7208173861207,0.0335188232421875,9.96945571289062,0.1149216796875
7.73322880550005,0.0143652099609375,10.0029745361328,0.1149216796875
7.735721164007,0.0383072265625,9.97424411621094,0.129286889648437
7.73821352251394,0.0,9.98382092285156,0.124498486328125
7.74070588102088,0.0383072265625,9.9981861328125,0.100556469726563
7.74319854117713,0.0335188232421875,9.96945571289062,0.086191259765625
7.74569120133339,0.0239420166015625,9.95030209960937,0.129286889648437
7.74818386148964,0.047884033203125,9.96466730957031,0.138863696289063
7.75067941270493,0.01915361328125,9.98860932617187,0.076614453125
7.75317496392021,0.047884033203125,9.97424411621094,0.105344873046875
7.7556705151355,0.0143652099609375,10.0125513427734,0.086191259765625
7.75813366212624,0.0239420166015625,9.96466730957031,0.067037646484375
7.76059680911699,0.05746083984375,9.97424411621094,0.0814028564453125
7.76305995610773,0.0622492431640625,9.97903251953125,0.0622492431640625
7.76547840502508,0.076614453125,9.94551369628906,0.0718260498046875
7.76789685394242,0.0430956298828125,9.97424411621094,0.028730419921875
7.77031530285977,0.0814028564453125,9.96945571289062,0.0239420166015625
7.77268824174625,0.047884033203125,9.95509050292969,-0.0430956298828125
7.77506118063273,0.110133276367187,9.98382092285156,0.0526724365234375
7.77743411951921,0.110133276367187,9.98382092285156,0.0239420166015625
7.78328636228541,0.124498486328125,9.97424411621094,0.028730419921875
7.78913860505162,0.15322890625,9.98382092285156,0.0047884033203125
7.79499084781783,0.119710083007812,10.0317049560547,0.086191259765625
7.79740979698233,0.124498486328125,9.97903251953125,0.0526724365234375
7.79982874614682,0.148440502929687,9.99339772949219,0.0335188232421875
7.80224769531132,0.162805712890625,10.0029745361328,-0.0047884033203125
7.80463103916983,0.148440502929687,9.96466730957031,0.0526724365234375
7.80701438302833,0.15322890625,9.95987890625,-0.009576806640625
7.80939772688683,0.138863696289063,9.98860932617187,0.0
7.81166632009429,0.124498486328125,10.0077629394531,-0.01915361328125
7.81393491330176,0.119710083007812,9.98382092285156,0.0
7.81620350650923,0.143652099609375,10.0029745361328,-0.0335188232421875
7.81839099544152,0.148440502929687,9.97903251953125,0.028730419921875
7.82057848437381,0.167594116210937,9.99339772949219,0.01915361328125
7.8227659733061,0.158017309570312,10.0077629394531,-0.01915361328125
7.82495157112512,0.162805712890625,10.0029745361328,-0.028730419921875
7.82713716894414,0.138863696289063,9.97903251953125,0.0335188232421875
7.82932276676316,0.181959326171875,9.97903251953125,-0.076614453125
7.83150839233583,0.124498486328125,10.0077629394531,-0.0143652099609375
7.83369401790851,0.1915361328125,10.0269165527344,0.0047884033203125
7.83587964348119,0.17238251953125,10.0125513427734,0.0
7.83806647870134,0.129286889648437,10.036493359375,0.0
7.84025331392149,0.13407529296875,10.0221281494141,-0.009576806640625
7.84244014914164,0.15322890625,10.0077629394531,-0.0430956298828125
7.84703040799702,0.1149216796875,10.0077629394531,0.0239420166015625
7.8516206668524,0.13407529296875,10.0221281494141,-0.0143652099609375
7.85621092570778,0.143652099609375,10.0029745361328,0.0047884033203125
7.85854920139379,0.129286889648437,10.0460701660156,-0.0047884033203125
7.86088747707979,0.15322890625,10.0556469726563,-0.009576806640625
7.8632257527658,0.105344873046875,10.0173397460938,-0.0047884033203125
7.86556578423282,0.1149216796875,10.0173397460938,0.0383072265625
7.86790581569984,0.138863696289063,10.0460701660156,0.0047884033203125
7.87024584716686,0.15322890625,10.0029745361328,0.047884033203125
7.87258719672198,0.162805712890625,10.0652237792969,-0.0335188232421875
7.8749285462771,0.143652099609375,9.99339772949219,0.0
7.87726989583223,0.129286889648437,10.0412817626953,0.0526724365234375
7.87961202998298,0.143652099609375,10.0125513427734,-0.0526724365234375
7.88195416413374,0.124498486328125,9.98382092285156,0.0335188232421875
7.88429629828449,0.13407529296875,10.0460701660156,0.028730419921875
7.88663867183773,0.124498486328125,10.0604353759766,0.0814028564453125
7.88898104539097,0.13407529296875,10.036493359375,0.0335188232421875
7.89132341894421,0.129286889648437,10.0269165527344,0.0335188232421875
7.89366565271699,0.119710083007812,9.97424411621094,0.0335188232421875
7.89600788648978,0.15322890625,9.95509050292969,0.148440502929687
7.89835012026256,0.110133276367187,9.93114848632812,0.0622492431640625
7.9045295577083,0.100556469726563,9.98860932617187,0.0430956298828125
7.91070899515405,0.124498486328125,9.95030209960937,0.076614453125
7.91688843259979,0.158017309570312,9.96466730957031,0.028730419921875
7.91940645091034,0.119710083007812,9.99339772949219,0.0335188232421875
7.92192446922088,0.13407529296875,9.95509050292969,0.0
7.92444248753143,0.148440502929687,9.95030209960937,-0.0383072265625
7.92695058654944,0.129286889648437,9.95030209960937,0.0909796630859375
7.92945868556745,0.105344873046875,9.94551369628906,0.0047884033203125
7.93196678458546,0.0909796630859375,9.96945571289062,0.0526724365234375
7.93443421118051,0.129286889648437,9.97903251953125,0.0430956298828125
7.93690163777556,0.124498486328125,9.97903251953125,0.047884033203125
7.9393690643706,0.110133276367187,9.96945571289062,0.0335188232421875
7.94179752302946,0.105344873046875,9.95509050292969,-0.028730419921875
7.94422598168831,0.0909796630859375,9.95509050292969,0.009576806640625
7.94665444034717,0.09576806640625,9.98382092285156,-0.05746083984375
7.9489662135134,0.129286889648437,9.97424411621094,-0.028730419921875
7.95127798667963,0.086191259765625,9.99339772949219,-0.009576806640625
7.95358975984586,0.100556469726563,9.96466730957031,-0.086191259765625
7.95578163685323,0.086191259765625,10.0125513427734,-0.009576806640625
7.95797351386061,0.110133276367187,9.99339772949219,-0.0047884033203125
7.96016539086798,0.138863696289063,9.97424411621094,0.0239420166015625
7.9712821564387,0.158017309570312,10.0460701660156,0.09576806640625
7.98239892200942,0.138863696289063,10.0508585693359,0.09576806640625
7.99351568758014,0.177170922851562,10.0460701660156,0.047884033203125
7.99576588479151,0.119710083007812,10.0317049560547,0.086191259765625
7.99801608200289,0.086191259765625,10.0317049560547,0.0718260498046875
8.00026627921427,0.1149216796875,10.0412817626953,0.0383072265625
8.00258992425318,0.13407529296875,10.0125513427734,-0.01915361328125
8.00491356929209,0.162805712890625,10.0029745361328,-0.0335188232421875
8.00723721433101,0.124498486328125,10.0173397460938,-0.05746083984375
8.00956011291965,0.148440502929687,9.94551369628906,-0.0909796630859375
8.01188301150829,0.138863696289063,10.036493359375,-0.119710083007812
8.01420591009693,0.167594116210937,10.0412817626953,-0.086191259765625
8.01652383371967,0.138863696289063,10.0652237792969,-0.09576806640625
8.01884175734241,0.158017309570312,10.0460701660156,-0.105344873046875
8.02115968096515,0.158017309570312,10.0987426025391,-0.138863696289063
8.02347078012112,0.129286889648437,10.0748005859375,-0.119710083007812
8.02578187927709,0.15322890625,10.0125513427734,-0.1149216796875
8.02809297843306,0.110133276367187,10.0604353759766,-0.086191259765625
8.03039721525334,0.138863696289063,10.0460701660156,-0.0383072265625
8.03270145207362,0.138863696289063,10.0173397460938,-0.0622492431640625
8.0350056888939,0.13407529296875,10.0556469726563,-0.105344873046875
8.03730305068318,0.1149216796875,10.0412817626953,-0.0814028564453125
8.03960041247246,0.119710083007812,10.0700121826172,-0.0383072265625
8.04189777426174,0.1149216796875,10.0125513427734,-0.0383072265625
8.04418820644102,0.100556469726563,10.0221281494141,-0.0143652099609375
8.04647863862031,0.086191259765625,10.0508585693359,-0.100556469726563
8.04876907079959,0.086191259765625,9.9981861328125,-0.0814028564453125
8.05246530756174,0.0430956298828125,10.036493359375,-0.0383072265625
8.05616154432388,0.047884033203125,10.0748005859375,-0.028730419921875
8.05985778108603,0.076614453125,10.0652237792969,-0.0622492431640625
8.06235924842544,0.067037646484375,10.0412817626953,-0.0143652099609375
8.06486071576485,0.0239420166015625,10.0652237792969,-0.0718260498046875
8.06736218310426,0.0430956298828125,10.0269165527344,0.0335188232421875
8.06986354980348,0.0430956298828125,10.0269165527344,-0.0335188232421875
8.07236491650269,0.0335188232421875,10.0556469726563,0.009576806640625
8.07486628320191,0.0383072265625,10.0412817626953,0.0047884033203125
8.07736493836684,0.0335188232421875,10.0748005859375,0.0047884033203125
8.07986359353177,0.0239420166015625,10.0125513427734,-0.0239420166015625
8.08236224869671,0.0335188232421875,9.97424411621094,0.0047884033203125
8.08482655533733,0.01915361328125,9.95987890625,0.0622492431640625
8.08729086197796,0.01915361328125,9.97424411621094,0.0430956298828125
8.08975516861859,0.0383072265625,9.94551369628906,0.0239420166015625
8.09218703477528,0.01915361328125,9.94072529296875,-0.0047884033203125
8.09461890093197,0.047884033203125,9.91678327636719,0.05746083984375
8.09705076708866,0.01915361328125,9.9215716796875,-0.0383072265625
8.11073518085277,0.0909796630859375,9.87847604980469,0.0335188232421875
8.12441959461688,0.067037646484375,9.89762966308594,0.100556469726563
8.13810400838099,0.0909796630859375,9.94072529296875,0.0383072265625
8.14060644110669,0.0718260498046875,9.93593688964844,0.0143652099609375
8.14310887383238,0.100556469726563,9.95030209960937,-0.0047884033203125
8.14561130655807,0.105344873046875,9.95987890625,0.0383072265625
8.14811424839835,0.0909796630859375,9.95030209960937,0.0143652099609375
8.15061719023862,0.0909796630859375,10.0173397460938,0.01915361328125
8.1531201320789,0.124498486328125,9.97903251953125,-0.0047884033203125
8.1556230666492,0.110133276367187,9.96466730957031,-0.0239420166015625
8.15812600121951,0.129286889648437,9.96466730957031,0.0383072265625
8.16062893578982,0.181959326171875,9.98382092285156,0.0718260498046875
8.16290955959624,0.129286889648437,9.96945571289062,0.0
8.16519018340265,0.1149216796875,9.90720646972656,0.0814028564453125
8.16747080720907,0.119710083007812,10.0029745361328,0.09576806640625
8.16975067515612,0.09576806640625,9.96466730957031,0.0
8.17203054310317,0.13407529296875,10.0125513427734,0.009576806640625
