timestamp,accel_x (m/s2),accel_y (m/s2),accel_z (m/s2)
0.00271953998480967,0.110133276367187,9.97424411621094,-0.09576806640625
0.00543907996961934,0.119710083007812,9.93593688964844,-0.143652099609375
0.00815861995442901,0.17238251953125,9.89762966308594,-0.205901342773437
0.0136031610785589,0.138863696289063,9.93593688964844,-0.253785375976562
0.0190477022026888,0.129286889648437,9.88805285644531,-0.263362182617187
0.0244922433268187,0.181959326171875,9.9215716796875,-0.316034619140625
0.0299411604275122,0.162805712890625,9.91678327636719,-0.28730419921875
0.0353900775282057,0.215478149414062,9.96945571289062,-0.320823022460937
0.0408389946288992,0.220266552734375,9.97424411621094,-0.349553442382812
0.0464317899847989,0.234631762695312,9.95987890625,-0.373495458984375
0.0520245853406986,0.225054956054687,9.96945571289062,-0.354341845703125
0.0576173806965983,0.258573779296875,9.96945571289062,-0.263362182617187
0.063366668674026,0.301669409179687,9.96466730957031,-0.354341845703125
0.0691159566514538,0.282515795898438,9.95987890625,-0.359130249023437
0.0748652446288816,0.263362182617187,9.98382092285156,-0.397437475585937
0.0806226200629112,0.316034619140625,9.99339772949219,-0.416591088867187
0.0863799954969409,0.28730419921875,10.0221281494141,-0.378283862304687
0.0921373709309705,0.258573779296875,9.99339772949219,-0.339976635742188
0.0978990307617001,0.301669409179687,10.0077629394531,-0.426167895507812
0.10366069059243,0.296881005859375,9.97903251953125,-0.397437475585937
0.109422350423159,0.292092602539062,10.0173397460938,-0.359130249023437
0.115189200249546,0.296881005859375,9.99339772949219,-0.28730419921875
0.120956050075932,0.253785375976562,10.0029745361328,-0.258573779296875
0.126722899902319,0.244208569335937,10.0173397460938,-0.253785375976562
0.132492776963953,0.24899697265625,10.0077629394531,-0.239420166015625
0.138262654025586,0.21068974609375,10.0125513427734,-0.335188232421875
0.14403253108722,0.196324536132812,10.0221281494141,-0.311246215820312
0.161347122992604,0.076614453125,9.96945571289062,-0.354341845703125
0.178661714897989,0.0909796630859375,9.97424411621094,-0.3447650390625
0.195976306803374,0.076614453125,9.94072529296875,-0.445321508789062
0.201751551703542,0.124498486328125,9.95030209960937,-0.416591088867187
0.207526796603711,0.110133276367187,9.9981861328125,-0.387860668945312
0.21330204150388,0.076614453125,9.93593688964844,-0.407014282226562
0.242336094129721,0.0383072265625,10.0556469726563,-0.186747729492187
0.271370146755563,0.076614453125,10.0317049560547,-0.1915361328125
0.300404199381404,0.0239420166015625,10.0221281494141,-0.229843359375
0.306387322319769,0.05746083984375,10.0173397460938,-0.220266552734375
0.312370445258135,0.0239420166015625,10.0173397460938,-0.258573779296875
0.3183535681965,-0.0143652099609375,10.0173397460938,-0.215478149414062
0.324339197970801,0.0,10.0891657958984,-0.234631762695312
0.330324827745102,0.05746083984375,10.0269165527344,-0.21068974609375
0.336310457519403,-0.0047884033203125,10.0604353759766,-0.225054956054687
0.34229786344388,0.0047884033203125,10.0460701660156,-0.277727392578125
0.348285269368356,0.0047884033203125,10.0077629394531,-0.2681505859375
0.354272675292833,0.0047884033203125,10.0508585693359,-0.258573779296875
0.36026178195516,0.0239420166015625,10.0029745361328,-0.253785375976562
0.366250888617486,0.0,10.0221281494141,-0.225054956054687
0.372239995279813,0.01915361328125,10.0125513427734,-0.167594116210937
0.378230723252898,0.0430956298828125,10.036493359375,-0.17238251953125
0.384221451225983,0.0239420166015625,10.0604353759766,-0.234631762695312
0.390212179199068,0.0239420166015625,10.0460701660156,-0.177170922851562
0.396281802896984,-0.0143652099609375,10.0748005859375,-0.253785375976562
0.4023514265949,0.01915361328125,10.036493359375,-0.258573779296875
0.408421050292816,0.0143652099609375,10.0508585693359,-0.234631762695312
0.414495846299758,0.0526724365234375,10.0795889892578,-0.181959326171875
0.4205706423067,0.0335188232421875,10.0795889892578,-0.17238251953125
0.426645438313642,0.028730419921875,10.0652237792969,-0.148440502929687
0.453988575764801,0.167594116210937,10.0173397460938,-0.100556469726563
0.481331713215961,0.15322890625,10.0221281494141,-0.076614453125
0.50867485066712,0.162805712890625,9.96945571289062,-0.143652099609375
0.514753611626323,0.17238251953125,10.0317049560547,-0.05746083984375
0.520832372585526,0.158017309570312,10.0652237792969,-0.09576806640625
0.526911133544729,0.148440502929687,10.0029745361328,-0.0814028564453125
0.532991402967468,0.124498486328125,10.0173397460938,-0.15322890625
0.539071672390207,0.124498486328125,9.94551369628906,-0.129286889648437
0.545151941812946,0.110133276367187,9.99339772949219,-0.119710083007812
0.551233703531693,0.124498486328125,10.0125513427734,-0.138863696289063
0.55731546525044,0.0909796630859375,9.98860932617187,-0.086191259765625
0.563397226969187,0.0909796630859375,10.0077629394531,-0.119710083007812
0.569536978596792,0.067037646484375,9.98382092285156,-0.100556469726563
0.575676730224397,0.0383072265625,9.95509050292969,-0.143652099609375
0.581816481852002,0.0430956298828125,9.99339772949219,-0.181959326171875
0.587964734673183,0.0526724365234375,9.94072529296875,-0.138863696289063
0.594112987494365,0.0335188232421875,9.95030209960937,-0.167594116210937
0.600261240315547,0.0383072265625,9.94551369628906,-0.148440502929687
0.606412596543843,0.047884033203125,9.98382092285156,-0.167594116210937
0.612563952772139,-0.0047884033203125,9.9215716796875,-0.24899697265625
0.618715309000436,0.0143652099609375,9.95987890625,-0.181959326171875
0.624868270154944,-0.009576806640625,9.94072529296875,-0.253785375976562
0.631021231309452,-0.0047884033203125,9.92636008300781,-0.201112939453125
0.637174192463959,0.028730419921875,9.97424411621094,-0.196324536132812
0.643328648844166,-0.0047884033203125,9.91199487304687,-0.162805712890625
0.649483105224372,-0.009576806640625,9.95509050292969,-0.148440502929687
0.655637561604578,0.0239420166015625,9.95030209960937,-0.0814028564453125
0.661793472737391,-0.0239420166015625,9.96466730957031,-0.143652099609375
0.667949383870204,0.0,9.97424411621094,-0.1149216796875
0.674105295003017,-0.028730419921875,9.94072529296875,-0.119710083007812
0.680478898518639,-0.01915361328125,9.94551369628906,-0.138863696289063
0.686852502034261,-0.0335188232421875,9.9215716796875,-0.143652099609375
0.693226105549883,0.0047884033203125,9.96945571289062,-0.129286889648437
0.699601968397104,-0.0335188232421875,9.94551369628906,-0.0909796630859375
0.705977831244326,-0.047884033203125,9.96466730957031,-0.129286889648437
0.712353694091547,-0.0335188232421875,9.9215716796875,-0.162805712890625
0.718731140272098,-0.028730419921875,9.95509050292969,-0.15322890625
0.725108586452649,-0.009576806640625,9.95987890625,-0.138863696289063
0.7314860326332,0.0047884033203125,9.93114848632812,-0.162805712890625
0.737865368787709,0.0335188232421875,9.98860932617187,-0.167594116210937
0.744244704942219,0.0143652099609375,9.97903251953125,-0.124498486328125
0.750624041096728,0.028730419921875,10.0029745361328,-0.196324536132812
0.757005608696555,0.0430956298828125,9.91678327636719,-0.0909796630859375
0.763387176296381,0.0239420166015625,9.97903251953125,-0.15322890625
0.769768743896208,0.0526724365234375,9.94072529296875,-0.162805712890625
0.77615184198648,0.0430956298828125,9.94551369628906,-0.100556469726563
0.782534940076753,0.105344873046875,9.97903251953125,-0.1915361328125
0.788918038167026,0.110133276367187,9.92636008300781,-0.196324536132812
0.795302721543758,0.1149216796875,9.93593688964844,-0.181959326171875
0.801687404920491,0.100556469726563,9.92636008300781,-0.105344873046875
0.808072088297223,0.148440502929687,9.93593688964844,-0.0814028564453125
0.84019903512881,0.1915361328125,9.90720646972656,-0.129286889648437
0.872325981960396,0.143652099609375,9.91199487304687,-0.100556469726563
0.904452928791983,0.09576806640625,9.93114848632812,-0.13407529296875
0.910907813991637,0.15322890625,9.9215716796875,-0.148440502929687
0.917362699191292,0.15322890625,9.95509050292969,-0.0622492431640625
0.923817584390946,0.17238251953125,9.93114848632812,-0.086191259765625
0.93027408753765,0.138863696289063,9.94072529296875,-0.110133276367187
0.936730590684353,0.129286889648437,9.93593688964844,-0.100556469726563
0.943187093831057,0.138863696289063,9.93593688964844,-0.100556469726563
0.949717516031579,0.13407529296875,9.96945571289062,-0.13407529296875
0.956247938232101,0.138863696289063,9.94551369628906,-0.21068974609375
0.962778360432623,0.143652099609375,9.96945571289062,-0.13407529296875
0.969318045979492,0.148440502929687,9.96945571289062,-0.143652099609375
0.975857731526361,0.138863696289063,9.95509050292969,-0.1149216796875
0.98239741707323,0.124498486328125,9.95509050292969,-0.15322890625
0.988939335150481,0.1915361328125,9.98382092285156,-0.158017309570312
0.995481253227733,0.143652099609375,9.96466730957031,-0.167594116210937
1.00202317130498,0.158017309570312,9.92636008300781,-0.196324536132812
1.00856662768519,0.138863696289063,9.95987890625,-0.0814028564453125
1.0151100840654,0.158017309570312,9.97903251953125,-0.086191259765625
1.02165354044561,0.124498486328125,9.97903251953125,-0.0814028564453125
1.02826190361836,0.124498486328125,9.93114848632812,-0.100556469726563
1.0348702667911,0.110133276367187,9.95030209960937,-0.167594116210937
1.04147862996385,0.201112939453125,9.96466730957031,-0.17238251953125
1.04809310837097,0.162805712890625,9.95509050292969,-0.162805712890625
1.05470758677809,0.162805712890625,9.98382092285156,-0.143652099609375
1.06132206518521,0.177170922851562,10.0173397460938,-0.119710083007812
1.06793904576246,0.124498486328125,9.9981861328125,-0.100556469726563
1.07455602633972,0.138863696289063,10.0029745361328,-0.167594116210937
1.08117300691697,0.143652099609375,9.97903251953125,-0.0622492431640625
1.08779493356627,0.162805712890625,10.0317049560547,-0.129286889648437
1.09441686021557,0.143652099609375,10.0221281494141,-0.0622492431640625
1.10103878686488,0.143652099609375,10.0077629394531,-0.0814028564453125
1.10766411661748,0.162805712890625,9.99339772949219,-0.124498486328125
1.11428944637008,0.201112939453125,9.98860932617187,-0.076614453125
1.12091477612267,0.13407529296875,9.98382092285156,-0.076614453125
1.12754162399594,0.15322890625,9.97903251953125,-0.0814028564453125
1.1341684718692,0.186747729492187,9.95987890625,-0.13407529296875
1.14079531974247,0.186747729492187,9.98860932617187,-0.067037646484375
1.14742364135705,0.129286889648437,9.96466730957031,-0.067037646484375
1.15405196297164,0.13407529296875,9.96466730957031,-0.047884033203125
1.16068028458622,0.13407529296875,9.98860932617187,-0.0383072265625
1.17069427633969,0.15322890625,9.95987890625,-0.009576806640625
1.18070826809315,0.162805712890625,9.98382092285156,-0.086191259765625
1.19072225984662,0.138863696289063,10.0077629394531,0.028730419921875
1.19741034285442,0.105344873046875,9.94072529296875,0.0239420166015625
1.20409842586223,0.100556469726563,9.95987890625,-0.01915361328125
1.21078650887004,0.1149216796875,9.94072529296875,-0.0622492431640625
1.21754974487263,0.1149216796875,9.94551369628906,-0.0526724365234375
1.22431298087523,0.167594116210937,9.94551369628906,-0.047884033203125
1.23107621687783,0.119710083007812,9.95030209960937,-0.0909796630859375
1.23784301928668,0.105344873046875,9.96945571289062,-0.0909796630859375
1.24460982169554,0.129286889648437,9.95030209960937,-0.124498486328125
1.25137662410439,0.124498486328125,9.92636008300781,-0.124498486328125
1.2581455431582,0.129286889648437,9.97903251953125,-0.158017309570312
1.26491446221202,0.129286889648437,9.97903251953125,-0.124498486328125
1.27168338126584,0.086191259765625,9.99339772949219,-0.129286889648437
1.27845414591427,0.067037646484375,9.98860932617187,-0.028730419921875
1.2852249105627,0.0622492431640625,9.98382092285156,-0.119710083007812
1.29199567521113,0.0335188232421875,9.95509050292969,-0.09576806640625
1.29876795917381,0.0909796630859375,9.98860932617187,-0.105344873046875
1.30554024313648,0.0526724365234375,10.0125513427734,-0.0622492431640625
1.31231252709916,0.0909796630859375,10.0029745361328,-0.1149216796875
1.31908631171288,0.0430956298828125,9.98860932617187,-0.105344873046875
1.3258600963266,0.05746083984375,10.0029745361328,-0.110133276367187
1.33263388094031,0.0526724365234375,9.97903251953125,-0.1149216796875
1.33947426375281,0.0383072265625,9.97903251953125,-0.100556469726563
1.34631464656531,0.05746083984375,9.96945571289062,-0.13407529296875
1.35315502937781,0.076614453125,9.98860932617187,-0.15322890625
1.36341762223262,0.01915361328125,9.97424411621094,-0.0814028564453125
1.37368021508744,0.0383072265625,9.98860932617187,-0.01915361328125
1.38394280794225,-0.0430956298828125,9.98860932617187,-0.0814028564453125
1.39086221679642,0.0,10.0029745361328,-0.0335188232421875
1.39778162565058,0.0143652099609375,9.92636008300781,-0.0526724365234375
1.40470103450475,0.0335188232421875,9.95030209960937,-0.086191259765625
1.41162467317662,0.0143652099609375,9.94072529296875,-0.086191259765625
1.41854831184848,0.0239420166015625,9.94072529296875,-0.0622492431640625
1.42547195052035,0.0526724365234375,9.91199487304687,-0.148440502929687
1.43239781662278,0.0239420166015625,9.97903251953125,-0.067037646484375
1.43932368272521,0.0383072265625,9.96466730957031,-0.143652099609375
1.44624954882764,0.0430956298828125,9.96466730957031,-0.1915361328125
1.45317662858025,0.086191259765625,9.96466730957031,-0.09576806640625
1.46010370833285,0.119710083007812,9.96466730957031,-0.09576806640625
1.46703078808546,0.086191259765625,10.0029745361328,-0.17238251953125
1.47402842165751,0.0909796630859375,9.97903251953125,-0.1149216796875
1.48102605522956,0.076614453125,9.97903251953125,-0.13407529296875
1.48802368880161,0.067037646484375,9.95987890625,-0.129286889648437
1.49502475911411,0.0909796630859375,9.99339772949219,-0.143652099609375
1.50202582942661,0.076614453125,9.97424411621094,-0.1149216796875
1.5090268997391,0.047884033203125,9.96945571289062,-0.129286889648437
1.51603131163147,0.100556469726563,10.0221281494141,-0.15322890625
1.52303572352383,0.0718260498046875,10.0077629394531,-0.124498486328125
1.53004013541619,0.0814028564453125,9.9981861328125,-0.0335188232421875
1.5440541331918,0.076614453125,9.98860932617187,-0.110133276367187
1.55806813096742,0.0622492431640625,9.98860932617187,-0.124498486328125
1.57208212874303,0.076614453125,9.95030209960937,-0.138863696289063
1.57909136170743,0.076614453125,9.97903251953125,-0.100556469726563
1.58610059467184,0.076614453125,9.95987890625,-0.0622492431640625
1.59310982763625,0.067037646484375,9.93114848632812,-0.138863696289063
1.60018522390361,0.1149216796875,9.96945571289062,-0.119710083007812
1.60726062017096,0.067037646484375,9.97903251953125,-0.138863696289063
1.61433601643832,0.09576806640625,9.96466730957031,-0.17238251953125
1.62141328705464,0.100556469726563,9.98860932617187,-0.047884033203125
1.62849055767096,0.067037646484375,10.0029745361328,-0.138863696289063
1.63556782828729,0.0718260498046875,10.0317049560547,-0.1149216796875
1.64618547303555,0.067037646484375,10.0317049560547,-0.129286889648437
1.65680311778381,0.0814028564453125,10.0269165527344,-0.158017309570312
1.66742076253207,0.129286889648437,10.0412817626953,-0.201112939453125
1.67450058262756,0.05746083984375,10.0556469726563,-0.100556469726563
1.68158040272305,0.0622492431640625,10.0077629394531,-0.17238251953125
1.68866022281854,0.0622492431640625,10.0269165527344,-0.205901342773437
1.69574161713277,0.076614453125,10.0173397460938,-0.17238251953125
1.702823011447,0.09576806640625,10.0508585693359,-0.229843359375
1.70990440576124,0.047884033203125,10.0652237792969,-0.296881005859375
1.71698794352165,0.0814028564453125,10.0077629394531,-0.24899697265625
1.72407148128206,0.076614453125,10.0412817626953,-0.229843359375
1.73115501904248,0.028730419921875,10.0556469726563,-0.186747729492187
1.73824066281417,0.0430956298828125,10.0029745361328,-0.205901342773437
1.74532630658587,0.0622492431640625,10.0317049560547,-0.21068974609375
1.75241195035757,0.0526724365234375,10.036493359375,-0.263362182617187
1.75956690999298,0.067037646484375,10.0412817626953,-0.201112939453125
1.7667218696284,0.047884033203125,10.0317049560547,-0.177170922851562
1.77387682926381,0.0526724365234375,10.0173397460938,-0.201112939453125
1.78103446066572,0.076614453125,10.0412817626953,-0.167594116210937
1.78819209206762,0.0814028564453125,10.036493359375,-0.15322890625
1.79534972346953,0.076614453125,9.99339772949219,-0.220266552734375
1.8025094105355,0.0718260498046875,9.97903251953125,-0.162805712890625
1.80966909760147,0.047884033203125,10.0029745361328,-0.138863696289063
1.81682878466744,0.047884033203125,9.98382092285156,-0.105344873046875
1.82399055430719,0.086191259765625,9.9981861328125,-0.086191259765625
1.83115232394695,0.086191259765625,10.0221281494141,-0.186747729492187
1.8383140935867,0.1149216796875,9.99339772949219,-0.0814028564453125
1.84554797227593,0.05746083984375,9.96945571289062,-0.0718260498046875
1.85278185096516,0.067037646484375,9.97903251953125,-0.119710083007812
1.86001572965439,0.086191259765625,9.95987890625,-0.076614453125
1.86725201915092,0.067037646484375,9.95509050292969,-0.167594116210937
1.87448830864745,0.0814028564453125,9.96466730957031,-0.086191259765625
1.88172459814398,0.076614453125,9.96945571289062,-0.119710083007812
1.88896247281845,0.0814028564453125,9.91678327636719,-0.0909796630859375
1.89620034749292,0.047884033203125,9.98382092285156,-0.0143652099609375
1.9034382221674,0.0814028564453125,9.96945571289062,-0.009576806640625
1.91067759543129,0.110133276367187,9.94072529296875,-0.0718260498046875
1.91791696869518,0.105344873046875,9.97424411621094,-0.0430956298828125
1.92515634195907,0.100556469726563,9.90241806640625,-0.086191259765625
1.93239836007973,0.0814028564453125,9.96945571289062,-0.028730419921875
1.93964037820038,0.05746083984375,9.93114848632812,-0.009576806640625
1.94688239632104,0.100556469726563,9.96945571289062,0.028730419921875
1.95419251578719,0.076614453125,9.90720646972656,-0.0430956298828125
1.96150263525333,0.105344873046875,9.94072529296875,-0.047884033203125
1.96881275471948,0.105344873046875,9.90720646972656,-0.0909796630859375
1.97620219026635,0.086191259765625,9.96945571289062,-0.09576806640625
1.98359162581323,0.110133276367187,9.95509050292969,-0.0526724365234375
1.9909810613601,0.086191259765625,9.95030209960937,-0.009576806640625
1.998379606716,0.105344873046875,9.95987890625,-0.028730419921875
2.0057781520719,0.047884033203125,9.95987890625,-0.067037646484375
2.0131766974278,0.0814028564453125,9.91678327636719,-0.0047884033203125
2.02057683718474,0.1149216796875,9.94072529296875,-0.0814028564453125
2.02797697694168,0.0909796630859375,9.94551369628906,0.076614453125
2.03537711669863,0.09576806640625,9.93593688964844,0.0
2.0427811569547,0.13407529296875,9.94072529296875,-0.0526724365234375
2.05018519721077,0.1149216796875,9.94551369628906,0.009576806640625
2.05758923746684,0.0383072265625,9.95987890625,-0.0239420166015625
2.06499579899028,0.0909796630859375,10.0077629394531,-0.110133276367187
2.07240236051371,0.09576806640625,9.95030209960937,-0.0383072265625
2.07980892203715,0.0909796630859375,9.99339772949219,-0.0909796630859375
2.08721699180711,0.0909796630859375,9.95987890625,-0.138863696289063
2.09462506157707,0.086191259765625,9.96945571289062,-0.0383072265625
2.10203313134703,0.067037646484375,9.99339772949219,-0.0814028564453125
2.10944268625154,0.0622492431640625,10.0173397460938,-0.0383072265625
2.11685224115605,0.110133276367187,10.0173397460938,-0.0430956298828125
2.12426179606057,0.086191259765625,10.036493359375,0.0
2.14288521609095,0.0622492431640625,10.0508585693359,-0.086191259765625
2.16150863612134,0.105344873046875,10.0269165527344,-0.105344873046875
2.18013205615172,0.0622492431640625,10.0269165527344,-0.0335188232421875
2.18760318364738,0.0335188232421875,10.036493359375,-0.047884033203125
2.19507431114304,0.067037646484375,10.0125513427734,-0.0430956298828125
2.20254543863869,0.086191259765625,10.0077629394531,-0.100556469726563
2.21001837331751,0.028730419921875,10.0269165527344,-0.067037646484375
2.21749130799633,0.105344873046875,10.0029745361328,-0.0622492431640625
2.22496424267514,0.05746083984375,10.0317049560547,-0.009576806640625
2.23243968223677,0.076614453125,9.99339772949219,-0.028730419921875
2.2399151217984,0.067037646484375,9.98382092285156,-0.05746083984375
2.24739056136004,0.0622492431640625,10.0173397460938,-0.0383072265625
2.25486987114736,0.047884033203125,10.0221281494141,-0.05746083984375
2.26234918093469,0.0622492431640625,10.0556469726563,-0.05746083984375
2.26982849072202,0.0143652099609375,10.0077629394531,-0.0239420166015625
2.27737285237567,0.05746083984375,9.99339772949219,-0.067037646484375
2.28491721402932,0.0239420166015625,9.98860932617187,-0.0239420166015625
2.29246157568296,0.047884033203125,9.99339772949219,-0.0383072265625
2.30008516151195,0.0718260498046875,9.98382092285156,-0.0718260498046875
2.30770874734094,0.110133276367187,9.9981861328125,-0.0047884033203125
2.31533233316993,0.0718260498046875,9.96466730957031,-0.100556469726563
2.32295819970639,0.0526724365234375,9.97424411621094,-0.0239420166015625
2.33058406624284,0.067037646484375,9.99339772949219,-0.028730419921875
2.33820993277929,0.076614453125,9.97903251953125,0.0
2.34583739360829,0.076614453125,9.98860932617187,-0.0526724365234375
2.35346485443728,0.076614453125,9.9981861328125,-0.067037646484375
2.36109231526628,0.0622492431640625,9.94551369628906,-0.0143652099609375
2.36872135031401,0.067037646484375,9.97903251953125,-0.05746083984375
2.37635038536175,0.0335188232421875,10.0077629394531,-0.067037646484375
2.38397942040949,0.067037646484375,10.0125513427734,-0.105344873046875
2.39161007622546,0.0814028564453125,9.98860932617187,-0.047884033203125
2.39924073204143,0.105344873046875,10.0029745361328,-0.0335188232421875
2.40687138785741,0.067037646484375,9.9981861328125,-0.143652099609375
2.41450356917251,0.0909796630859375,10.0125513427734,-0.110133276367187
2.42213575048761,0.0718260498046875,10.0317049560547,-0.0814028564453125
2.42976793180271,0.076614453125,9.9981861328125,-0.0909796630859375
2.43740158056574,0.0622492431640625,9.96945571289062,-0.0526724365234375
2.44503522932876,0.047884033203125,9.98860932617187,-0.0718260498046875
2.45266887809179,0.124498486328125,10.0029745361328,-0.086191259765625
2.46803915527277,0.05746083984375,10.0317049560547,-0.05746083984375
2.48340943245376,0.105344873046875,10.0029745361328,-0.0526724365234375
2.49877970963475,0.0622492431640625,10.0029745361328,-0.067037646484375
2.50648719542034,0.0526724365234375,10.0125513427734,-0.110133276367187
2.51419468120593,0.0526724365234375,10.0077629394531,-0.186747729492187
2.52190216699152,0.076614453125,9.97424411621094,-0.167594116210937
2.52961301323718,0.0430956298828125,10.036493359375,-0.158017309570312
2.53732385948284,0.0430956298828125,10.0125513427734,-0.196324536132812
2.5450347057285,0.0335188232421875,10.0077629394531,-0.167594116210937
2.55274717968683,0.047884033203125,9.9981861328125,-0.196324536132812
2.56045965364516,0.05746083984375,9.96466730957031,-0.1915361328125
2.56817212760349,0.0814028564453125,9.99339772949219,-0.167594116210937
2.57044427376234,0.119710083007812,10.036493359375,-0.119710083007812
2.57271641992119,0.09576806640625,10.0460701660156,-0.138863696289063
2.57498856608004,0.076614453125,10.0125513427734,-0.181959326171875
2.57732129323933,0.100556469726563,10.0029745361328,-0.15322890625
2.57965402039862,0.047884033203125,10.0556469726563,-0.244208569335937
2.58198674755791,0.067037646484375,10.0508585693359,-0.220266552734375
2.5842503303487,0.100556469726563,10.0029745361328,-0.239420166015625
2.5865139131395,0.067037646484375,9.98382092285156,-0.186747729492187
2.5887774959303,0.0430956298828125,10.0029745361328,-0.229843359375
2.59089301849975,0.0718260498046875,10.0221281494141,-0.225054956054687
2.5930085410692,0.05746083984375,9.98382092285156,-0.196324536132812
2.59512406363865,0.0526724365234375,9.96466730957031,-0.181959326171875
2.59716238405965,0.067037646484375,9.98382092285156,-0.15322890625
2.59920070448066,0.05746083984375,9.98382092285156,-0.196324536132812
2.60123902490166,0.067037646484375,9.9981861328125,-0.196324536132812
2.60327355826755,0.0430956298828125,9.9981861328125,-0.17238251953125
2.60530809163343,0.0430956298828125,9.98382092285156,-0.1915361328125
2.60734262499932,0.0909796630859375,9.95987890625,-0.21068974609375
2.60943601155531,0.0383072265625,10.0173397460938,-0.148440502929687
2.61152939811131,0.01915361328125,10.0029745361328,-0.1915361328125
2.6136227846673,0.0526724365234375,10.0029745361328,-0.277727392578125
2.61579043381009,0.0383072265625,9.94072529296875,-0.277727392578125
2.61795808295288,0.0430956298828125,9.95030209960937,-0.205901342773437
2.62012573209567,0.05746083984375,9.97903251953125,-0.215478149414062
2.62229388531833,0.05746083984375,9.95987890625,-0.21068974609375
2.62446203854099,0.05746083984375,9.99339772949219,-0.225054956054687
2.62663019176364,0.05746083984375,9.96945571289062,-0.24899697265625
2.62879893346286,0.0383072265625,9.91199487304687,-0.215478149414062
2.63096767516208,0.0622492431640625,9.95987890625,-0.225054956054687
2.6331364168613,0.0622492431640625,9.95509050292969,-0.225054956054687
2.63530612333916,0.0718260498046875,9.90720646972656,-0.17238251953125
2.63747582981703,0.0718260498046875,9.9215716796875,-0.225054956054687
2.63964553629489,0.086191259765625,9.9215716796875,-0.215478149414062
2.64181572862345,0.0526724365234375,9.96466730957031,-0.17238251953125
2.64398592095201,0.086191259765625,9.90720646972656,-0.148440502929687
2.64615611328057,0.0718260498046875,9.94072529296875,-0.1149216796875
2.64832348654446,0.076614453125,9.94551369628906,-0.09576806640625
2.65049085980835,0.0622492431640625,9.93114848632812,-0.13407529296875
2.65265823307224,0.0526724365234375,9.95987890625,-0.13407529296875
2.65481554427016,0.0383072265625,9.97903251953125,-0.15322890625
2.65697285546809,0.0909796630859375,9.95509050292969,-0.148440502929687
2.65913016666601,0.124498486328125,9.93593688964844,-0.086191259765625
2.66351115120378,0.0718260498046875,9.95987890625,-0.13407529296875
2.66789213574155,0.086191259765625,9.98382092285156,-0.148440502929687
2.67227312027933,0.138863696289063,10.0077629394531,-0.138863696289063
2.67446524159009,0.076614453125,9.91199487304687,-0.124498486328125
2.67665736290086,0.076614453125,9.93593688964844,-0.110133276367187
2.67884948421163,0.129286889648437,10.0029745361328,-0.1149216796875
2.68096276882534,0.086191259765625,9.95030209960937,-0.15322890625
2.68307605343905,0.0430956298828125,9.94551369628906,-0.110133276367187
2.68518933805277,0.105344873046875,9.97903251953125,-0.086191259765625
2.6872258144525,0.129286889648437,9.94551369628906,-0.05746083984375
2.68926229085224,0.100556469726563,9.95030209960937,-0.17238251953125
2.69129876725198,0.086191259765625,9.99339772949219,-0.162805712890625
2.69333455148592,0.086191259765625,9.93593688964844,-0.148440502929687
2.69537033571987,0.110133276367187,9.98382092285156,-0.129286889648437
2.69740611995381,0.15322890625,9.96945571289062,-0.15322890625
2.69951078770554,0.09576806640625,9.94072529296875,-0.129286889648437
2.70161545545728,0.15322890625,9.96466730957031,-0.143652099609375
2.70372012320901,0.119710083007812,9.98860932617187,-0.148440502929687
2.70583091433314,0.1149216796875,9.98860932617187,-0.177170922851562
2.70794170545727,0.148440502929687,9.95030209960937,-0.158017309570312
2.7100524965814,0.138863696289063,10.0125513427734,-0.138863696289063
2.71212511371465,0.1149216796875,10.0221281494141,-0.15322890625
2.7141977308479,0.110133276367187,9.98860932617187,-0.105344873046875
2.71627034798115,0.158017309570312,9.97903251953125,-0.110133276367187
2.71830243500372,0.105344873046875,9.97903251953125,-0.138863696289063
2.72033452202629,0.105344873046875,9.96945571289062,-0.220266552734375
2.72236660904886,0.138863696289063,9.9981861328125,-0.15322890625
2.72439742306117,0.1149216796875,9.97424411621094,-0.177170922851562
2.72642823707349,0.086191259765625,9.95987890625,-0.162805712890625
2.7284590510858,0.105344873046875,10.0029745361328,-0.158017309570312
2.73055430257099,0.100556469726563,9.95987890625,-0.17238251953125
2.73264955405619,0.119710083007812,9.97903251953125,-0.119710083007812
2.73474480554138,0.1149216796875,10.0077629394531,-0.13407529296875
2.73684409725553,0.100556469726563,9.94072529296875,-0.181959326171875
2.73894338896967,0.119710083007812,9.94551369628906,-0.13407529296875
2.74104268068381,0.1149216796875,9.96466730957031,-0.119710083007812
2.74314620446718,0.0909796630859375,10.0125513427734,-0.110133276367187
2.74524972825055,0.119710083007812,9.95030209960937,-0.100556469726563
2.74735325203392,0.067037646484375,9.97424411621094,-0.0526724365234375
2.74946015068844,0.0718260498046875,9.95987890625,-0.0814028564453125
2.75156704934295,0.09576806640625,9.95509050292969,-0.076614453125
2.75367394799747,0.110133276367187,9.95987890625,-0.0526724365234375
2.75578203469451,0.129286889648437,9.98382092285156,-0.0814028564453125
2.75789012139156,0.0909796630859375,9.96945571289062,-0.110133276367187
2.7599982080886,0.105344873046875,9.99339772949219,-0.158017309570312
2.76216651527177,0.15322890625,9.96466730957031,-0.100556469726563
2.76433482245493,0.138863696289063,9.97903251953125,-0.09576806640625
2.7665031296381,0.1149216796875,9.96466730957031,-0.0526724365234375
2.76867228653914,0.13407529296875,9.98860932617187,-0.067037646484375
2.77084144344018,0.110133276367187,10.0029745361328,-0.05746083984375
2.77301060034122,0.100556469726563,9.98382092285156,-0.076614453125
2.77512437128307,0.129286889648437,10.0269165527344,-0.086191259765625
2.77723814222491,0.105344873046875,9.98382092285156,-0.0622492431640625
2.77935191316675,0.086191259765625,9.9981861328125,-0.0814028564453125
2.78146008666935,0.09576806640625,9.98382092285156,-0.076614453125
2.78356826017195,0.076614453125,10.0221281494141,-0.1149216796875
2.78567643367455,0.13407529296875,9.95030209960937,-0.119710083007812
2.78778317575355,0.1149216796875,9.98860932617187,-0.143652099609375
2.78988991783255,0.0814028564453125,9.98860932617187,-0.158017309570312
2.79199665991155,0.119710083007812,9.97903251953125,-0.124498486328125
2.79417093682127,0.100556469726563,10.0460701660156,-0.17238251953125
2.796345213731,0.143652099609375,9.97903251953125,-0.17238251953125
2.79851949064073,0.086191259765625,9.96945571289062,-0.1149216796875
2.80069505943413,0.119710083007812,9.9981861328125,-0.1915361328125
2.80287062822754,0.105344873046875,9.96945571289062,-0.162805712890625
2.80504619702094,0.119710083007812,9.96466730957031,-0.177170922851562
2.8072222698291,0.100556469726563,10.0125513427734,-0.13407529296875
2.80939834263726,0.0814028564453125,9.97903251953125,-0.17238251953125
2.81157441544542,0.105344873046875,10.0173397460938,-0.181959326171875
2.81353434578396,0.0622492431640625,10.0077629394531,-0.21068974609375
2.8154942761225,0.124498486328125,9.95509050292969,-0.15322890625
2.81745420646104,0.0909796630859375,9.99339772949219,-0.186747729492187
2.81941336271103,0.1149216796875,9.97424411621094,-0.09576806640625
2.82137251896103,0.119710083007812,10.0029745361328,-0.13407529296875
2.82333167521102,0.086191259765625,9.97903251953125,-0.13407529296875
2.82535945494193,0.086191259765625,9.97903251953125,-0.196324536132812
2.82738723467283,0.1149216796875,9.99339772949219,-0.177170922851562
2.82941501440374,0.0718260498046875,9.96945571289062,-0.110133276367187
2.83167464081433,0.0383072265625,9.93593688964844,-0.148440502929687
2.83393426722492,0.086191259765625,9.95987890625,-0.21068974609375
2.83619389363551,0.105344873046875,9.93593688964844,-0.177170922851562
2.83853001809298,0.100556469726563,9.95509050292969,-0.148440502929687
2.84086614255044,0.0622492431640625,10.0077629394531,-0.229843359375
2.84320226700791,0.0909796630859375,9.96466730957031,-0.138863696289063
2.84554045450792,0.0814028564453125,9.96945571289062,-0.129286889648437
2.84787864200792,0.076614453125,9.96466730957031,-0.186747729492187
2.85021682950793,0.110133276367187,9.97903251953125,-0.21068974609375
2.85255553436904,0.0526724365234375,9.95030209960937,-0.1915361328125
2.85489423923015,0.0335188232421875,10.0125513427734,-0.129286889648437
2.85723294409127,0.05746083984375,9.95987890625,-0.17238251953125
2.85956212081291,0.0383072265625,9.97424411621094,-0.225054956054687
2.86189129753456,0.067037646484375,9.99339772949219,-0.100556469726563
2.86422047425621,0.076614453125,9.96945571289062,-0.1915361328125
2.86653629614809,0.0430956298828125,9.94551369628906,-0.186747729492187
2.86885211803997,0.0526724365234375,9.95030209960937,-0.201112939453125
2.87116793993185,0.0814028564453125,9.98382092285156,-0.148440502929687
2.87347053655125,0.0718260498046875,10.0508585693359,-0.158017309570312
2.87577313317066,0.0526724365234375,9.96466730957031,-0.105344873046875
2.87807572979007,0.086191259765625,9.98860932617187,-0.158017309570312
2.89403291124987,0.100556469726563,10.0269165527344,-0.13407529296875
2.90999009270966,0.09576806640625,10.036493359375,-0.158017309570312
2.92594727416946,0.100556469726563,10.036493359375,-0.167594116210937
2.9325765217823,0.0430956298828125,10.0029745361328,-0.15322890625
2.93920576939515,0.067037646484375,10.0221281494141,-0.196324536132812
2.94583501700799,0.0814028564453125,10.0412817626953,-0.167594116210937
2.94809222230313,0.05746083984375,10.0077629394531,-0.1149216796875
2.95034942759827,0.0526724365234375,10.0029745361328,-0.138863696289063
2.95260663289341,0.047884033203125,9.95987890625,-0.100556469726563
2.95486633037604,0.0718260498046875,9.99339772949219,-0.13407529296875
2.95712602785868,0.0430956298828125,9.93593688964844,-0.17238251953125
2.95938572534132,0.0383072265625,9.96945571289062,-0.148440502929687
2.96164391262431,0.028730419921875,9.93114848632812,-0.124498486328125
2.9639020999073,0.047884033203125,9.96466730957031,-0.181959326171875
2.96616028719029,0.05746083984375,9.96945571289062,-0.086191259765625
2.96841861976408,0.067037646484375,9.95987890625,-0.119710083007812
2.97067695233786,0.0526724365234375,9.95030209960937,-0.0909796630859375
2.97293528491164,0.0622492431640625,9.96945571289062,-0.0909796630859375
2.97519363061477,0.0814028564453125,9.99339772949219,-0.167594116210937
2.97745197631789,0.0718260498046875,9.95030209960937,-0.15322890625
2.97971032202102,0.0622492431640625,9.97424411621094,-0.124498486328125
2.98192720342293,0.047884033203125,9.98382092285156,-0.15322890625
2.98414408482485,0.09576806640625,9.95030209960937,-0.148440502929687
2.98636096622676,0.0143652099609375,10.0125513427734,-0.162805712890625
2.98870487144595,0.0430956298828125,9.97424411621094,-0.100556469726563
2.99104877666515,0.0430956298828125,9.9981861328125,-0.158017309570312
2.99339268188434,0.086191259765625,9.96945571289062,-0.124498486328125
2.99796788045205,0.129286889648437,9.96466730957031,-0.105344873046875
3.00254307901977,0.067037646484375,9.99339772949219,-0.181959326171875
3.00711827758749,0.05746083984375,9.97424411621094,-0.15322890625
3.00938622284574,0.138863696289063,9.95509050292969,-0.124498486328125
3.01165416810399,0.086191259765625,9.97424411621094,-0.129286889648437
3.01392211336223,0.105344873046875,9.98860932617187,-0.124498486328125
3.01618973939305,0.124498486328125,9.98860932617187,-0.1149216796875
3.01845736542386,0.138863696289063,10.0077629394531,-0.162805712890625
3.02072499145468,0.0814028564453125,9.97903251953125,-0.086191259765625
3.02299244056492,0.15322890625,9.94072529296875,-0.09576806640625
3.02525988967516,0.105344873046875,10.0077629394531,-0.1149216796875
3.0275273387854,0.138863696289063,9.9981861328125,-0.124498486328125
3.02979566332966,0.110133276367187,9.97424411621094,-0.0143652099609375
3.03206398787393,0.0909796630859375,9.98860932617187,-0.100556469726563
3.03433231241819,0.143652099609375,10.0269165527344,-0.086191259765625
3.03656940144814,0.124498486328125,10.0317049560547,-0.028730419921875
3.03880649047809,0.067037646484375,9.97903251953125,-0.0526724365234375
3.04104357950803,0.0909796630859375,10.0077629394531,-0.129286889648437
3.04770067002996,0.124498486328125,9.98860932617187,-0.129286889648437
3.05435776055189,0.0909796630859375,9.98860932617187,-0.119710083007812
3.06101485107381,0.1149216796875,10.0221281494141,-0.181959326171875
3.06320098551392,0.110133276367187,10.0029745361328,-0.143652099609375
3.06538711995403,0.086191259765625,10.0412817626953,-0.229843359375
3.06757325439414,0.09576806640625,10.0077629394531,-0.15322890625
3.06983405094362,0.0909796630859375,10.0221281494141,-0.17238251953125
3.0720948474931,0.110133276367187,10.0029745361328,-0.143652099609375
3.07435564404258,0.124498486328125,10.0125513427734,-0.15322890625
3.07669339979344,0.105344873046875,9.9981861328125,-0.162805712890625
3.07903115554431,0.162805712890625,9.97903251953125,-0.086191259765625
3.08136891129518,0.158017309570312,10.0029745361328,-0.15322890625
3.08364241357382,0.13407529296875,10.0269165527344,-0.124498486328125
3.08591591585247,0.1149216796875,10.0269165527344,-0.167594116210937
3.08818941813112,0.119710083007812,9.97424411621094,-0.110133276367187
3.09046222780993,0.105344873046875,9.99339772949219,-0.148440502929687
3.09273503748875,0.100556469726563,10.0556469726563,-0.162805712890625
3.09500784716757,0.13407529296875,10.0173397460938,-0.143652099609375
3.09727885129083,0.105344873046875,9.9981861328125,-0.0909796630859375
3.09954985541409,0.124498486328125,10.0317049560547,-0.15322890625
3.10182085953735,0.105344873046875,10.0412817626953,-0.148440502929687
3.1040916080725,0.086191259765625,10.0221281494141,-0.119710083007812
3.10636235660765,0.086191259765625,10.0269165527344,-0.167594116210937
3.10863310514279,0.0718260498046875,10.0508585693359,-0.181959326171875
3.1109679787322,0.100556469726563,10.0029745361328,-0.196324536132812
3.1133028523216,0.100556469726563,10.0173397460938,-0.167594116210937
3.11563772591101,0.129286889648437,10.0412817626953,-0.24899697265625
3.11911070716643,0.105344873046875,10.0173397460938,-0.17238251953125
3.12258368842185,0.076614453125,10.0412817626953,-0.225054956054687
3.12605666967728,0.09576806640625,9.97424411621094,-0.158017309570312
3.1328804343257,0.09576806640625,10.0125513427734,-0.215478149414062
3.13970419897412,0.0814028564453125,10.0173397460938,-0.201112939453125
3.14652796362255,0.086191259765625,10.0029745361328,-0.205901342773437
3.14880466913469,0.1149216796875,9.98860932617187,-0.181959326171875
3.15108137464684,0.1149216796875,9.98382092285156,-0.181959326171875
3.15335808015898,0.09576806640625,10.0173397460938,-0.167594116210937
3.15563571731176,0.1149216796875,10.0029745361328,-0.201112939453125
3.15791335446454,0.110133276367187,9.97903251953125,-0.225054956054687
3.16019099161731,0.119710083007812,9.96466730957031,-0.177170922851562
3.1624681101069,0.086191259765625,10.0029745361328,-0.21068974609375
3.16474522859649,0.09576806640625,10.0125513427734,-0.201112939453125
3.16702234708607,0.0814028564453125,9.9981861328125,-0.201112939453125
3.17076871413794,0.0718260498046875,10.0269165527344,-0.24899697265625
3.17451508118981,0.028730419921875,10.0125513427734,-0.239420166015625
3.17826144824168,0.05746083984375,10.0460701660156,-0.21068974609375
3.18076858360409,0.0622492431640625,9.9981861328125,-0.244208569335937
3.1832757189665,0.05746083984375,10.0221281494141,-0.244208569335937
3.18578285432891,0.067037646484375,10.0269165527344,-0.258573779296875
3.18828980262536,0.05746083984375,10.0269165527344,-0.220266552734375
3.19079675092181,0.0909796630859375,10.0077629394531,-0.234631762695312
3.19330369921826,0.05746083984375,9.98382092285156,-0.21068974609375
3.19581009564838,0.0814028564453125,10.0173397460938,-0.196324536132812
3.1983164920785,0.047884033203125,10.0317049560547,-0.201112939453125
3.20082288850862,0.124498486328125,9.9981861328125,-0.244208569335937
3.20329367274256,0.100556469726563,9.94072529296875,-0.196324536132812
3.2057644569765,0.0909796630859375,10.0317049560547,-0.162805712890625
3.20823524121044,0.0909796630859375,10.0125513427734,-0.220266552734375
3.21067020551166,0.0814028564453125,10.0317049560547,-0.167594116210937
3.21310516981288,0.129286889648437,10.0173397460938,-0.177170922851562
3.2155401341141,0.110133276367187,10.0077629394531,-0.17238251953125
3.21797454161193,0.105344873046875,10.0173397460938,-0.186747729492187
3.22040894910977,0.119710083007812,10.0173397460938,-0.138863696289063
3.2228433566076,0.100556469726563,9.98382092285156,-0.138863696289063
3.24178400303773,0.09576806640625,10.0077629394531,-0.0909796630859375
3.26072464946786,0.124498486328125,9.95509050292969,-0.129286889648437
3.27966529589799,0.119710083007812,9.96466730957031,-0.0047884033203125
3.2820689881723,0.100556469726563,9.96945571289062,-0.0814028564453125
3.2844726804466,0.09576806640625,9.95509050292969,-0.138863696289063
3.2868763727209,0.0814028564453125,9.9981861328125,-0.124498486328125
3.28928219807898,0.0909796630859375,9.9981861328125,-0.148440502929687
3.29168802343706,0.0718260498046875,9.96466730957031,-0.047884033203125
3.29409384879514,0.0909796630859375,9.95987890625,-0.105344873046875
3.29649415304861,0.086191259765625,9.95987890625,-0.05746083984375
3.29889445730208,0.086191259765625,9.96466730957031,-0.0526724365234375
3.30129476155555,0.0718260498046875,9.95030209960937,-0.110133276367187
3.30366829334809,0.13407529296875,9.92636008300781,-0.1149216796875
3.30604182514062,0.13407529296875,9.9215716796875,-0.129286889648437
3.30841535693316,0.119710083007812,10.0029745361328,-0.09576806640625
3.31076905463281,0.09576806640625,9.9981861328125,-0.0814028564453125
3.31312275233245,0.0814028564453125,9.96945571289062,-0.143652099609375
3.3154764500321,0.148440502929687,9.95030209960937,-0.13407529296875
3.31782708165102,0.1149216796875,10.0269165527344,-0.119710083007812
3.32017771326995,0.100556469726563,9.99339772949219,-0.09576806640625
3.32252834488887,0.110133276367187,9.97424411621094,-0.086191259765625
3.32487978455901,0.0909796630859375,9.97424411621094,-0.01915361328125
3.32723122422915,0.105344873046875,9.98382092285156,-0.0526724365234375
3.32958266389929,0.13407529296875,9.97424411621094,-0.086191259765625
3.33437387402299,0.086191259765625,10.0221281494141,-0.0909796630859375
3.33916508414668,0.119710083007812,10.0317049560547,-0.076614453125
3.34395629427038,0.13407529296875,10.0700121826172,-0.119710083007812
3.34630337803773,0.0814028564453125,10.0317049560547,-0.167594116210937
3.34865046180509,0.0718260498046875,10.0460701660156,-0.13407529296875
3.35099754557245,0.0909796630859375,9.9981861328125,-0.158017309570312
3.35326694444398,0.124498486328125,10.0029745361328,-0.167594116210937
3.35553634331551,0.143652099609375,10.0173397460938,-0.167594116210937
3.35780574218705,0.143652099609375,9.98382092285156,-0.17238251953125
3.36007596354121,0.129286889648437,10.0269165527344,-0.105344873046875
3.36234618489538,0.124498486328125,9.98382092285156,-0.105344873046875
3.36461640624955,0.0909796630859375,9.97903251953125,-0.1915361328125
3.366887100911,0.110133276367187,10.0221281494141,-0.1149216796875
3.36915779557245,0.09576806640625,10.036493359375,-0.17238251953125
3.3714284902339,0.0814028564453125,9.97903251953125,-0.119710083007812
3.3737677588971,0.100556469726563,10.0125513427734,-0.13407529296875
3.3761070275603,0.086191259765625,10.0221281494141,-0.110133276367187
3.37844629622349,0.110133276367187,10.0412817626953,-0.148440502929687
3.38078656629728,0.05746083984375,9.98860932617187,-0.158017309570312
3.38312683637106,0.105344873046875,10.0173397460938,-0.1149216796875
3.38546710644484,0.105344873046875,10.0556469726563,-0.158017309570312
3.38780765972176,0.076614453125,10.036493359375,-0.0814028564453125
3.39014821299867,0.100556469726563,10.036493359375,-0.177170922851562
3.39248876627558,0.0814028564453125,9.97424411621094,-0.0814028564453125
3.39482938053339,0.119710083007812,9.99339772949219,-0.0718260498046875
3.39716999479119,0.1149216796875,10.0460701660156,-0.138863696289063
3.399510609049,0.067037646484375,10.0939541992188,-0.047884033203125
3.40181833772738,0.028730419921875,10.0508585693359,-0.09576806640625
3.40412606640576,0.110133276367187,10.0460701660156,-0.17238251953125
3.40643379508415,0.124498486328125,10.0412817626953,-0.05746083984375
3.40877765174648,0.13407529296875,10.0412817626953,-0.067037646484375
3.41112150840881,0.09576806640625,10.0173397460938,-0.0526724365234375
3.41346536507114,0.09576806640625,10.0317049560547,-0.047884033203125
3.41581140001037,0.100556469726563,10.0460701660156,-0.100556469726563
3.4181574349496,0.110133276367187,10.0269165527344,-0.0430956298828125
3.42050346988884,0.119710083007812,10.0843773925781,-0.0430956298828125
3.42284797965446,0.09576806640625,10.0700121826172,-0.067037646484375
3.42519248942009,0.0718260498046875,10.0508585693359,-0.0718260498046875
3.42753699918571,0.105344873046875,10.0556469726563,0.0047884033203125
3.42988188004509,0.086191259765625,10.0269165527344,-0.009576806640625
3.43222676090447,0.0718260498046875,10.0221281494141,-0.0335188232421875
3.43457164176385,0.0909796630859375,10.0317049560547,0.028730419921875
3.43691649278381,0.100556469726563,10.0556469726563,0.0047884033203125
3.43926134380378,0.110133276367187,10.0269165527344,0.01915361328125
3.44160619482374,0.119710083007812,10.036493359375,0.0239420166015625
3.44395063080464,0.124498486328125,10.0748005859375,0.076614453125
3.44629506678554,0.0909796630859375,10.0460701660156,-0.028730419921875
3.44863950276643,0.143652099609375,10.0748005859375,0.05746083984375
3.45098372846088,0.086191259765625,10.0843773925781,0.0718260498046875
3.45332795415533,0.13407529296875,10.0939541992188,0.0526724365234375
3.45567217984978,0.105344873046875,10.1083194091797,0.0383072265625
3.45801649549647,0.110133276367187,10.0795889892578,0.0526724365234375
3.46036081114317,0.119710083007812,10.0604353759766,0.076614453125
3.46270512678986,0.105344873046875,10.0700121826172,0.100556469726563
3.465049324164,0.129286889648437,10.0556469726563,0.177170922851562
3.46739352153814,0.129286889648437,10.0795889892578,0.205901342773437
3.46973771891228,0.105344873046875,10.0700121826172,0.196324536132812
3.4720815599496,0.076614453125,10.0939541992188,0.234631762695312
3.47442540098693,0.105344873046875,10.0508585693359,0.100556469726563
3.47676924202425,0.119710083007812,10.0939541992188,0.105344873046875
3.47919144156852,0.119710083007812,10.0748005859375,0.167594116210937
3.48161364111279,0.086191259765625,10.0652237792969,0.215478149414062
3.48403584065706,0.100556469726563,10.0269165527344,0.24899697265625
3.48638193104335,0.067037646484375,10.0604353759766,0.282515795898438
3.48872802142963,0.0909796630859375,10.0795889892578,0.2681505859375
3.49107411181591,0.0814028564453125,10.0939541992188,0.258573779296875
3.49341966455028,0.05746083984375,10.0843773925781,0.234631762695312
3.49576521728465,0.047884033203125,10.0795889892578,0.253785375976562
3.49811077001902,0.067037646484375,10.0795889892578,0.21068974609375
3.50045669536624,0.0622492431640625,10.0652237792969,0.201112939453125
3.50280262071347,0.110133276367187,10.0795889892578,0.316034619140625
3.50514854606069,0.138863696289063,10.0748005859375,0.282515795898438
3.50749480647736,0.0909796630859375,10.0843773925781,0.181959326171875
3.50984106689402,0.067037646484375,10.0460701660156,0.158017309570312
3.51218732731069,0.076614453125,10.0843773925781,0.119710083007812
3.51453294710236,0.0622492431640625,10.0652237792969,0.076614453125
3.51687856689403,0.0814028564453125,10.1083194091797,0.110133276367187
3.5192241866857,0.086191259765625,10.0939541992188,0.0718260498046875
3.5215697663298,0.13407529296875,10.0891657958984,0.076614453125
3.5239153459739,0.138863696289063,10.1131078125,0.0909796630859375
3.526260925618,0.110133276367187,10.1178962158203,0.143652099609375
3.53217161835345,0.105344873046875,10.2328178955078,0.124498486328125
3.53808231108891,0.0909796630859375,10.2807019287109,0.1149216796875
3.54399300382436,0.076614453125,10.2615483154297,0.143652099609375
3.54633815936906,0.0814028564453125,10.2232410888672,0.177170922851562
3.54868331491377,0.0718260498046875,10.2615483154297,0.158017309570312
3.55102847045847,0.0335188232421875,10.26633671875,0.129286889648437
3.5533732279997,0.0430956298828125,10.3094323486328,0.124498486328125
3.55571798554094,0.0335188232421875,10.2567599121094,0.100556469726563
3.55806274308217,0.0335188232421875,10.2423947021484,0.148440502929687
3.56040709990726,0.0383072265625,10.2567599121094,0.148440502929687
3.56275145673235,0.01915361328125,10.2471831054687,0.1915361328125
3.56509581355744,0.0335188232421875,10.2854903320312,0.244208569335937
3.56743988121152,0.0526724365234375,10.2807019287109,0.21068974609375
3.5697839488656,0.028730419921875,10.2807019287109,0.244208569335937
3.57212801651968,0.0383072265625,10.3142207519531,0.244208569335937
3.5745071622445,0.0718260498046875,10.3046439453125,0.205901342773437
3.57688630796933,0.076614453125,10.2998555419922,0.220266552734375
3.57926545369416,0.0430956298828125,10.342951171875,0.3447650390625
3.58161179684737,0.0383072265625,10.3190091552734,0.339976635742188
3.58395814000058,0.0622492431640625,10.3046439453125,0.320823022460937
3.58630448315379,0.0718260498046875,10.3190091552734,0.292092602539062
3.58864870944502,0.05746083984375,10.3046439453125,0.316034619140625
3.59099293573625,0.0430956298828125,10.3237975585937,0.392649072265625
3.59333716202747,0.0909796630859375,10.3142207519531,0.407014282226562
3.59568124818198,0.0814028564453125,10.3142207519531,0.435744702148437
3.59802533433649,0.086191259765625,10.3142207519531,0.521935961914062
3.600369420491,0.0909796630859375,10.3046439453125,0.51714755859375
3.60271347881348,0.067037646484375,10.3237975585937,0.584185205078125
3.60505753713596,0.105344873046875,10.26633671875,0.569819995117188
3.60740159545845,0.100556469726563,10.2136642822266,0.507570751953125
3.60977793692981,0.0622492431640625,10.2376062988281,0.474051928710937
3.61215427840116,0.076614453125,10.1609918457031,0.44053310546875
3.61453061987252,0.086191259765625,10.1753570556641,0.373495458984375
3.61687698049535,0.05746083984375,10.1514150390625,0.354341845703125
3.61922334111817,0.067037646484375,10.1562034423828,0.359130249023437
3.621569701741,0.0814028564453125,10.1609918457031,0.373495458984375
3.62391290904352,0.0526724365234375,10.1514150390625,0.383072265625
3.62625611634603,0.047884033203125,10.1992990722656,0.40222587890625
3.62859932364855,0.0335188232421875,10.2184526855469,0.450109912109375
3.63094325626574,0.0622492431640625,10.2376062988281,0.469263525390625
3.63328718888292,0.047884033203125,10.2280294921875,0.430956298828125
3.6356311215001,0.110133276367187,10.3142207519531,0.4213794921875
3.63811625252224,0.076614453125,10.2902787353516,0.4979939453125
3.64060138354438,0.0909796630859375,10.2998555419922,0.493205541992187
3.64308651456651,0.0718260498046875,10.3668931884766,0.565031591796875
3.64554167830349,0.076614453125,10.3333743652344,0.541089575195312
3.64799684204048,0.047884033203125,10.3333743652344,0.641646044921875
3.65045200577746,0.05746083984375,10.3237975585937,0.684741674804688
3.65287669913684,0.0526724365234375,10.3094323486328,0.742202514648437
3.65530139249622,0.0814028564453125,10.3716815917969,0.742202514648437
3.65772608585559,0.05746083984375,10.3477395751953,0.742202514648437
3.66014980406306,0.0526724365234375,10.3477395751953,0.775721337890625
3.66257352227052,0.0335188232421875,10.3285859619141,0.694318481445312
3.66499724047798,0.01915361328125,10.3046439453125,0.689530078125
3.66741967087077,-0.0143652099609375,10.2998555419922,0.761356127929687
3.66984210126356,-0.0239420166015625,10.2807019287109,0.718260498046875
3.67226453165635,0.0047884033203125,10.2950671386719,0.814028564453125
3.67483344859427,-0.01915361328125,10.2759135253906,0.847547387695312
3.6774023655322,-0.0143652099609375,10.26633671875,0.885854614257812
3.67997128247013,-0.0335188232421875,10.2471831054687,0.914585034179687
3.68258382652394,-0.0430956298828125,10.2471831054687,0.967257470703125
3.68519637057775,-0.0143652099609375,10.2711251220703,0.967257470703125
3.68780891463157,-0.05746083984375,10.2328178955078,1.00556469726562
3.6955438433425,0.009576806640625,10.1849338623047,1.08696755371094
3.70327877205343,0.05746083984375,10.2088758789062,1.12048637695313
3.71101370076436,0.0335188232421875,10.2184526855469,1.16358200683594
3.71359619946228,0.067037646484375,10.1992990722656,1.13006318359375
3.7161786981602,0.0047884033203125,10.2088758789062,1.17315881347656
3.71876119685812,0.0526724365234375,10.1801454589844,1.17794721679687
3.72130993958816,0.0047884033203125,10.1466266357422,1.24019645996094
3.72385868231819,0.01915361328125,10.1274730224609,1.35032973632813
3.72640742504823,0.0239420166015625,10.1657802490234,1.32638771972656
3.72880724476394,0.0718260498046875,10.1274730224609,1.38863696289062
3.73120706447965,0.0239420166015625,10.1083194091797,1.44130939941406
3.73360688419536,0.01915361328125,10.0987426025391,1.51313544921875
3.73585273798225,0.01915361328125,10.0891657958984,1.52271225585937
3.73809859176915,0.047884033203125,10.1609918457031,1.53707746582031
3.74034444555604,0.0143652099609375,10.1083194091797,1.53707746582031
3.7480542469612,-0.086191259765625,9.8449572265625,1.98239897460937
3.75576404836637,-0.0814028564453125,9.75876596679687,1.98239897460937
3.76347384977153,-0.110133276367187,9.72045874023437,2.02549460449219
3.77017374447807,-0.215478149414062,9.0021982421875,2.068590234375
3.77687363918461,-0.162805712890625,9.00698664550781,2.13083947753906
3.78357353389115,-0.181959326171875,8.94473740234375,2.09253225097656
3.78581187099718,-0.196324536132812,8.9255837890625,2.1835119140625
3.78805020810321,-0.225054956054687,8.81545051269531,2.16914670410156
3.79028854520925,-0.143652099609375,8.70052883300781,2.17872351074219
3.79251795980593,-0.21068974609375,8.71489404296875,2.12126267089844
3.79474737440262,-0.148440502929687,8.6191259765625,2.03507141113281
3.79697678899931,-0.124498486328125,8.51856950683594,1.99676418457031
3.799197185058,-0.143652099609375,8.52335791015625,1.97282216796875
3.80141758111669,-0.148440502929687,8.47547387695312,2.01591779785156
3.80363797717538,-0.13407529296875,8.39407102050781,2.07337863769531
3.80592042555111,-0.0718260498046875,8.33661018066406,2.03507141113281
3.80820287392683,-0.13407529296875,8.31745656738281,2.04943662109375
3.81048532230256,-0.1149216796875,8.28872614746094,1.95845695800781
3.81283549400228,-0.100556469726563,8.28872614746094,1.97761057128906
3.81518566570199,-0.086191259765625,8.22168850097656,1.85790048828125
3.81753583740171,-0.086191259765625,8.25999572753906,1.76692082519531
3.81988152446768,-0.1149216796875,8.25520732421875,1.70467158203125
3.82222721153364,-0.119710083007812,8.20732329101562,1.67115275878906
3.82457289859961,-0.1149216796875,8.14986245117187,1.65678754882812
3.82692015837609,-0.119710083007812,8.14986245117187,1.67115275878906
3.82926741815256,-0.119710083007812,8.05409438476562,1.75255561523437
3.83161467792904,-0.138863696289063,8.07324799804687,1.77170922851562
3.83396273531836,-0.110133276367187,8.08761320800781,1.838746875
3.83631079270767,-0.158017309570312,8.03494077148437,1.8004396484375
3.83865885009699,-0.110133276367187,8.03015236816406,1.77170922851562
3.84100799224108,-0.0909796630859375,7.96311472167969,1.73819040527344
3.84335713438518,-0.15322890625,7.92480749511719,1.63763393554687
3.84570627652927,-0.119710083007812,7.78594379882812,1.4939818359375
3.84798195491469,-0.100556469726563,7.70454094238281,1.455674609375
3.8502576333001,-0.1149216796875,7.65665690917969,1.47961662597656
3.85253331168552,-0.09576806640625,7.59919606933594,1.55623107910156
3.85480297509698,-0.0718260498046875,7.54173522949219,1.59453830566406
3.85707263850845,-0.100556469726563,7.53694682617187,1.67115275878906
3.85934230191991,-0.0622492431640625,7.41723674316406,1.67115275878906
3.86512475905967,-0.067037646484375,6.94318481445312,1.74776721191406
3.87090721619943,-0.086191259765625,6.95755002441406,1.85311208496094
3.87668967333919,-0.0335188232421875,6.95755002441406,1.92972653808594
3.87902638454796,-0.01915361328125,6.90487758789063,1.91057292480469
3.88136309575672,-0.0335188232421875,6.97670363769531,1.92014973144531
3.88369980696549,-0.0526724365234375,6.94318481445312,1.90578452148437
3.8859673587233,0.0047884033203125,6.91924279785156,1.86268889160156
3.88823491048111,-0.0383072265625,6.92881960449219,1.88663090820312
3.89050246223892,0.0,6.94318481445312,1.85790048828125
3.89270181166745,0.028730419921875,6.92403120117187,1.93451494140625
3.89490116109598,-0.0047884033203125,6.90487758789063,2.05422502441406
3.8971005105245,-0.047884033203125,6.9336080078125,2.06380183105469
3.89959787680778,-0.09576806640625,6.92881960449219,2.06380183105469
3.90209524309106,-0.05746083984375,6.92881960449219,2.068590234375
3.90459260937434,-0.110133276367187,6.91924279785156,1.98718737792969
3.90709060693293,-0.162805712890625,6.93839641113281,1.92493813476562
3.90958860449152,-0.167594116210937,6.85220515136719,1.85790048828125
3.91208660205012,-0.1915361328125,6.88093557128906,1.81480485839844
3.91466105539213,-0.229843359375,6.86657036132813,1.73340200195312
3.91723550873415,-0.24899697265625,6.87135876464844,1.70467158203125
3.91980996207617,-0.3064578125,6.80432111816406,1.608903515625
3.92238924826323,-0.335188232421875,6.80910952148437,1.55623107910156
3.9249685344503,-0.387860668945312,6.79474431152344,1.46046301269531
3.92754782063736,-0.44053310546875,6.78516750488281,1.46525141601562
3.93012731900976,-0.507570751953125,6.78516750488281,1.35990654296875
3.93270681738215,-0.521935961914062,6.79474431152344,1.39821376953125
3.93528631575455,-0.579396801757812,6.78516750488281,1.43173259277344
3.93786471099109,-0.608127221679687,6.818686328125,1.4173673828125
3.94044310622764,-0.67037646484375,6.78516750488281,1.34554133300781
3.94302150146418,-0.660799658203125,6.84741674804687,1.27371528320312
3.94559362044204,-0.646434448242187,6.88572397460938,1.23061965332031
3.94816573941991,-0.6512228515625,6.90008918457031,1.40300217285156
3.95073785839777,-0.703895288085937,6.92881960449219,1.54186586914062
3.96907666004705,0.047884033203125,7.47469758300781,1.97282216796875
3.98741546169634,0.086191259765625,7.48427438964844,2.19308872070312
4.00575426334562,0.0909796630859375,7.50342800292969,2.42293208007812
4.00810436523365,0.076614453125,7.44596716308594,2.51870014648437
4.01045446712168,0.0622492431640625,7.39808312988281,2.49475812988281
4.0128045690097,0.0143652099609375,7.38371791992187,2.56179577636719
4.01868321964449,-0.24899697265625,7.95832631835937,2.90656081542969
4.02456187027927,-0.311246215820312,7.98705673828125,2.90177241210937
4.03044052091405,-0.368707055664062,8.06845959472656,2.95923325195312
4.03278477004599,-0.445321508789062,8.10197841796875,3.04063610839844
4.03512901917794,-0.512359155273437,8.21211169433594,3.0262708984375
4.03747326830989,-0.4979939453125,8.26957253417969,3.12203896484375
4.0398169550829,-0.59376201171875,8.28393774414062,3.16034619140625
4.0421606418559,-0.608127221679687,8.37491740722656,3.24653745117187
4.04450432862891,-0.63206923828125,8.39407102050781,3.3710359375
4.04684988404341,-0.636857641601562,8.43237824707031,3.33751711425781
4.04919543945792,-0.723048901367187,8.37970581054688,3.43807358398437
4.05154099487242,-0.737414111328125,8.39885942382812,3.50989963378906
4.05388684046704,-0.756567724609375,8.43237824707031,3.49553442382812
4.05623268606166,-0.770932934570312,8.41322463378906,3.43328518066406
4.05857853165627,-0.794874951171875,8.36055219726562,3.31836350097656
4.06122145494187,-0.809240161132812,8.32224497070312,3.28005627441406
4.06386437822747,-0.780509741210937,8.29351455078125,3.20344182128906
4.06650730151306,-0.8044517578125,8.25041892089844,3.16034619140625
4.06915563430387,-0.732625708007812,8.19295808105469,3.1794998046875
4.07180396709467,-0.780509741210937,8.29351455078125,3.30878669433594
4.07445229988547,-0.770932934570312,8.20732329101562,3.41413156738281
4.07710131420838,-0.76614453125,8.18816967773437,3.51947644042969
4.0797503285313,-0.751779321289062,8.1594392578125,3.47159240722656
4.08239934285421,-0.751779321289062,8.18338127441406,3.50032282714844
4.0848288134217,-0.737414111328125,8.13070883789062,3.447650390625
4.0872582839892,-0.732625708007812,8.1594392578125,3.41891997070312
4.08968775455669,-0.660799658203125,8.14507404785156,3.28963308105469
4.09204104329368,-0.665588061523437,8.12592043457031,3.28005627441406
4.09439433203066,-0.679953271484375,8.20253488769531,3.27047946777344
4.09674762076764,-0.6512228515625,8.16422766113281,3.43807358398437
4.09909730338483,-0.63206923828125,8.19295808105469,3.42370837402344
4.10144698600201,-0.598550415039062,8.25520732421875,3.49553442382812
4.1037966686192,-0.59376201171875,8.26957253417969,3.54341845703125
4.11083859271858,-0.282515795898438,8.74362446289062,3.78762702636719
4.11788051681796,-0.263362182617187,8.71489404296875,3.86424147949219
4.12492244091735,-0.263362182617187,8.68616362304688,4.03662399902344
4.1379424875536,-0.871489404296875,9.35654008789063,4.89374819335937
4.15096253418985,-0.86191259765625,9.33738647460937,4.86022937011719
4.1639825808261,-0.8044517578125,9.26077202148437,4.7884033203125
4.16635499141999,-0.770932934570312,9.22725319824219,4.73094248046875
4.16872740201389,-0.770932934570312,9.19852277832031,4.71657727050781
4.17109981260778,-0.732625708007812,9.17936916503906,4.66390483398437
4.17346858556423,-0.665588061523437,9.117119921875,4.68784685058594
4.17583735852068,-0.63206923828125,9.01177504882812,4.63996281738281
4.17820613147713,-0.603338818359375,8.95431420898437,4.72615407714844
4.18057097805916,-0.603338818359375,8.86333454589844,4.73573088378906
4.18293582464119,-0.569819995117188,8.82981572265625,4.68305844726562
4.18530067122322,-0.536301171875,8.78672009277344,4.67827004394531
4.1876625614142,-0.47884033203125,8.73883605957031,4.54419475097656
4.19002445160518,-0.464475122070312,8.66701000976562,4.44363828125
4.19238634179616,-0.483628735351562,8.62870278320312,4.5968671875
4.19473029253401,-0.397437475585937,8.73404765625,4.76924970703125
4.19707424327185,-0.40222587890625,8.70531723632812,4.87938298339844
4.1994181940097,-0.407014282226562,8.60954916992188,4.84107575683594
4.20176116362775,-0.4213794921875,8.62391437988281,4.7117888671875
4.2041041332458,-0.40222587890625,8.67179841308594,4.54419475097656
4.20644710286386,-0.383072265625,8.63349118652344,4.55377155761719
4.20878958756437,-0.349553442382812,8.68137521972656,4.64953962402344
4.21113207226489,-0.316034619140625,8.66222160644531,4.7884033203125
4.2134745569654,-0.349553442382812,8.63349118652344,4.92247861328125
4.21581703873624,-0.282515795898438,8.62870278320312,5.02303508300781
4.21815952050707,-0.239420166015625,8.67179841308594,5.05655390625
4.2205020022779,-0.21068974609375,8.6957404296875,5.286397265625
4.22284448035951,-0.225054956054687,8.72447084960938,5.46835659179687
4.22518695844111,-0.162805712890625,8.79150849609375,5.61200869140625
4.22752943652271,-0.15322890625,8.85375773925781,5.72693037109375
4.23009777202618,-0.158017309570312,8.91600698242187,5.79875642089844
4.23266610752965,-0.162805712890625,8.99262143554687,5.80833322753906
4.23523444303311,-0.13407529296875,9.07402429199219,5.80833322753906
4.23780894813294,-0.143652099609375,9.1554271484375,5.87058247070312
4.24038345323277,-0.0814028564453125,9.22725319824219,5.83706364746094
4.2429579583326,-0.167594116210937,9.25119521484375,5.88973608398438
4.24556875374276,-0.076614453125,9.33738647460937,5.87537087402344
4.24817954915292,-0.205901342773437,9.33738647460937,5.99508095703125
4.25079034456308,-0.239420166015625,9.38048210449219,6.10521423339844
4.25337208338687,-0.320823022460937,9.48103857421875,6.25365473632812
4.25595382221065,-0.407014282226562,9.50976899414063,6.44040246582031
4.25853556103444,-0.579396801757812,9.55286462402344,6.57926616210937
4.26118931949798,-0.660799658203125,9.56244143066406,6.5505357421875
4.26384307796152,-0.74699091796875,9.58159504394531,6.44997927246094
4.26649683642506,-0.876277807617187,9.54807622070313,6.33505759277344
4.26915129833912,-0.962469067382812,9.64863269042969,6.19140549316406
4.27180576025318,-1.11569797363281,9.71088193359375,5.87058247070312
4.27446022216724,-1.19231242675781,9.67257470703125,5.59764348144531
4.27711307438079,-1.25935007324219,9.71567033691406,5.43004936523437
4.27976592659433,-1.2641384765625,9.6917283203125,5.53060583496094
4.28241877880787,-1.2641384765625,9.59117185058594,5.52581743164062
4.29584003054398,-0.483628735351562,9.50976899414063,6.94318481445312
4.30926128228008,-0.435744702148437,9.56244143066406,6.80432111816406
4.32268253401619,-0.426167895507812,9.60074865722656,6.93839641113281
4.3254125607089,-0.430956298828125,9.63426748046875,6.96712683105469
4.3281425874016,-0.373495458984375,9.72524714355469,6.9336080078125
4.33087261409431,-0.40222587890625,9.64863269042969,6.93839641113281
4.33751389379809,-0.201112939453125,8.73404765625,7.36935270996094
4.34415517350186,-0.129286889648437,8.71010563964844,7.24964262695312
4.35079645320564,-0.067037646484375,8.76277807617187,7.05810649414062
4.3534501580125,0.0526724365234375,8.76277807617187,6.98628044433594
4.35610386281936,0.234631762695312,8.71489404296875,6.90966599121094
4.35875756762622,0.407014282226562,8.7723548828125,6.61757338867187
4.3653245713426,1.31681091308594,8.93994899902344,8.0828248046875
4.37189157505897,1.27850368652344,8.97346782226562,7.98705673828125
4.37845857877534,1.13963999023438,8.97825622558594,7.83861623535156
4.38104383864947,1.00077629394531,8.98304462890625,7.63750329589844
4.3836290985236,0.924161840820312,8.98783303222656,7.40765993652344
4.38621435839773,0.675164868164063,8.98304462890625,7.37414111328125
4.38879886762082,0.45968671875,9.02614025878906,7.48427438964844
4.39138337684392,0.282515795898438,9.08838950195312,7.68059892578125
4.39396788606701,0.067037646484375,9.117119921875,7.83861623535156
4.40538868055486,0.732625708007812,8.87769975585937,8.52814631347656
4.41680947504272,0.866701000976562,9.14106193847656,8.59518395996094
4.42823026953057,0.890643017578125,9.56722983398437,8.34139858398438
4.43073190022719,0.8810662109375,9.84016882324219,7.84819304199219
4.43323353092381,0.991199487304687,10.1131078125,7.72369455566406
4.43573516162043,1.02950671386719,10.4004120117187,7.65665690917969
4.43823718934395,1.1109095703125,10.6302553710937,7.6997525390625
4.44073921706747,1.14442839355469,10.7834842773437,7.82903942871094
4.443241244791,1.18273562011719,10.8888291503906,7.93438430175781
4.4457428877489,1.27371528320312,10.8505219238281,8.18338127441406
4.4482445307068,1.32159931640625,10.9319247802734,8.36534060058594
4.4507461736647,1.33596452636719,10.9510783935547,8.76756647949219
4.45324790082398,1.40779057617187,10.9510783935547,9.09317790527344
4.45574962798327,1.38863696289062,10.9845972167969,9.32302126464844
4.45825135514255,1.28329208984375,11.0803652832031,9.423577734375
4.46088782661879,1.22583125,11.0947304931641,9.39005891113281
4.46352429809502,1.06302553710937,11.2814782226562,9.16979235839844
4.46616076957125,1.0342951171875,11.3437274658203,8.95431420898437
4.46884176627536,0.981622680664062,11.4107651123047,8.62870278320312
4.47152276297946,0.8810662109375,11.5208983886719,8.38449421386719
4.47420375968356,0.8044517578125,11.5400520019531,8.32224497070312
4.47686161884155,0.756567724609375,11.5208983886719,8.17380446777344
4.47951947799954,0.78529814453125,11.4586491455078,8.33182177734375
4.48217733715752,0.756567724609375,11.3245738525391,8.62870278320312
4.48483447875908,0.627280834960937,11.2383825927734,9.14106193847656
4.48749162036064,0.608127221679687,11.2048637695312,9.66778630371094
4.4901487619622,0.44053310546875,11.1569797363281,10.036493359375
4.49280631697522,0.397437475585937,11.109095703125,10.3333743652344
4.49546387198825,0.330399829101562,11.1186725097656,10.649408984375
4.49812142700127,0.258573779296875,11.1904985595703,10.7547538574219
4.50077968481376,0.100556469726563,11.2671130126953,10.6925046142578
4.50343794262626,0.047884033203125,11.4107651123047,10.5632177246094
4.50609620043876,-0.0239420166015625,11.5161099853516,10.189722265625
4.50875451999171,-0.0239420166015625,11.6501852783203,9.67736311035156
4.51141283954466,-0.0383072265625,11.7938373779297,9.32780966796875
4.51407115909761,-0.028730419921875,12.0524111572266,9.18415756835937
4.52053095171372,0.40222587890625,13.7379291259766,11.5927244384766
4.52699074432983,0.512359155273437,13.9773492919922,11.1474029296875
4.53345053694594,0.569819995117188,14.1210013916016,10.7260234375
4.54128487570463,1.01992990722656,15.4856963378906,13.0005150146484
4.54911921446331,0.928950244140625,15.5814644042969,12.6318079589844
4.55695355322199,0.790086547851562,15.7203281005859,12.4642138427734
4.55953162863432,0.603338818359375,15.8160961669922,12.4594254394531
4.56210970404665,0.435744702148437,15.8160961669922,12.6078659423828
4.56468777945897,0.296881005859375,15.8065193603516,12.7467296386719
4.56726413471071,0.129286889648437,15.8065193603516,12.8089788818359
4.56984048996245,-0.0239420166015625,15.7921541503906,12.8903817382812
4.57241684521419,-0.1915361328125,15.78257734375,13.1585323242187
4.57506441460437,-0.335188232421875,15.859191796875,13.1728975341797
4.57771198399456,-0.450109912109375,15.8352497802734,13.1920511474609
4.58035955338475,-0.51714755859375,15.9405946533203,13.1393787109375
4.58294070041166,-0.531512768554687,15.9789018798828,13.0196686279297
4.58552184743857,-0.656011254882812,16.0076322998047,12.8951701416016
4.58810299446548,-0.703895288085937,16.0794583496094,12.5982891357422
4.59061279215428,-0.732625708007812,16.1129771728516,12.3061965332031
4.59312258984308,-0.732625708007812,16.1608612060547,12.0571995605469
4.59563238753189,-0.737414111328125,16.165649609375,12.2152168701172
4.59814178705445,-0.699106884765625,16.1608612060547,12.3971761962891
4.60065118657701,-0.641646044921875,16.1129771728516,12.4785790527344
4.60316058609957,-0.617704028320312,15.9932670898437,12.4690022460937
4.60566992659436,-0.4979939453125,15.9501714599609,12.3732341796875
4.60817926708914,-0.411802685546875,15.9262294433594,12.4211182128906
4.61068860758393,-0.40222587890625,15.9741134765625,12.3780225830078
4.61319794563732,-0.426167895507812,16.1081887695312,12.2008516601562
4.6157072836907,-0.411802685546875,16.1943800292969,12.1242372070312
4.61821662174409,-0.40222587890625,16.3523973388672,12.1002951904297
4.62065226925928,-0.430956298828125,16.4481654052734,11.9135474609375
4.62308791677448,-0.45968671875,16.6205479248047,11.7842605712891
4.62552356428967,-0.44053310546875,16.7546232177734,11.5879360351562
4.62798522596502,-0.483628735351562,16.9078521240234,11.415553515625
4.63044688764037,-0.488417138671875,17.0131969970703,11.4778027587891
4.63290854931572,-0.47884033203125,17.1424838867188,11.4969563720703
4.63533285504489,-0.545877978515625,17.2430403564453,11.4730143554687
4.63775716077406,-0.59376201171875,17.4010576660156,11.4490723388672
4.64018146650322,-0.63206923828125,17.5590749755859,11.3149970458984
4.64260496834785,-0.63206923828125,17.6835734619141,11.2000753662109
4.64502847019247,-0.7278373046875,17.8032835449219,11.0181160400391
4.64745197203709,-0.78529814453125,17.8463791748047,10.8409451171875
4.64987581333484,-0.82360537109375,17.8942632080078,10.8265799072266
4.65229965463259,-0.794874951171875,17.8942632080078,10.6925046142578
4.65472349593033,-0.790086547851562,17.9086284179687,10.5584293212891
4.65714549495377,-0.78529814453125,17.8942632080078,10.3908352050781
4.65956749397721,-0.751779321289062,17.9086284179687,10.26633671875
4.66198949300065,-0.761356127929687,17.9086284179687,10.2136642822266
4.6644092266161,-0.90021982421875,17.9229936279297,10.1562034423828
4.66682896023155,-0.837970581054687,17.8846864013672,9.97903251953125
4.669248693847,-0.761356127929687,17.9325704345703,9.6917283203125
4.67166842946983,-0.78529814453125,18.0905877441406,9.48582697753906
4.67408816509267,-0.799663354492188,18.2102978271484,9.28950244140625
4.6765079007155,-0.833182177734375,18.3826803466797,9.09796630859375
4.68266205031945,-0.814028564453125,20.0298910888672,7.50342800292969
4.68881619992339,-0.972045874023437,20.2788880615234,7.4699091796875
4.69497034952734,-1.19231242675781,20.5614038574219,7.32146867675781
4.69745245963476,-1.24498486328125,20.7385747802734,7.16823977050781
4.69993456974218,-0.933738647460937,20.8870152832031,6.98628044433594
4.7024166798496,-1.30723410644531,20.9396877197266,6.9336080078125
4.70489982326865,-1.80522805175781,21.3802208251953,6.65588061523437
4.70738296668771,-1.49877023925781,21.8590611572266,6.40209523925781
4.70986611010676,-1.21625444335937,22.2852290527344,6.46913288574219
4.71234496708375,-0.986411083984375,22.4576115722656,6.53138212890625
4.71482382406074,-1.04387192382812,22.52464921875,6.46913288574219
4.71730268103773,-1.02950671386719,22.7305505615234,6.39251843261719
4.71976026909112,-0.814028564453125,22.8454722412109,6.34942280273437
4.7222178571445,-0.775721337890625,23.0657387939453,6.04775339355469
4.72467544519789,-1.2641384765625,23.2237561035156,5.63595070800781
4.72718205642835,-1.32159931640625,23.5350023193359,5.25766684570312
4.72968866765882,-1.05344873046875,24.0473614746094,4.96078583984375
4.73219527888929,-0.9193734375,24.6123930664062,4.89374819335937
4.73469755400865,-0.603338818359375,24.7081611328125,4.83149895019531
4.73719982912801,0.0526724365234375,24.6315466796875,4.91769020996094
4.73970210424737,-0.124498486328125,24.7368915527344,4.99909306640625
4.74220483406508,0.0718260498046875,24.8518132324219,4.63996281738281
4.74470756388279,0.09576806640625,24.8135060058594,4.520252734375
4.7472102937005,0.627280834960937,24.746468359375,4.3287166015625
4.74971318286067,1.17794721679687,24.9332160888672,4.367023828125
4.75221607202082,0.890643017578125,24.8135060058594,4.18027609863281
4.75471896118098,0.588973608398437,24.7033727294922,4.07014282226563
4.75718627812977,0.454898315429687,24.66985390625,4.060566015625
4.75965359507857,0.531512768554687,24.7321031494141,3.91212551269531
4.76212091202736,0.3447650390625,24.7033727294922,3.74931979980469
4.76458568698396,0.507570751953125,24.9284276855469,3.48116921386719
4.76705046194056,1.05344873046875,25.1151754150391,3.23696064453125
4.76951523689716,1.36948334960938,25.2779811279297,3.02148249511719
4.77201375008075,1.21146604003906,25.5988041503906,2.86346518554687
4.77451226326435,1.455674609375,25.7472446533203,2.68629426269531
4.77701077644794,0.948103857421875,25.7185142333984,2.8730419921875
4.77951073982684,1.2641384765625,25.4790940673828,3.02148249511719
4.78201070320574,1.455674609375,24.9619465087891,3.50511123046875
4.78451066658464,1.66636435546875,24.7273147460938,3.57214887695312
4.78701410690581,2.06380183105469,24.5884510498047,3.66791694335937
4.78951754722699,2.01112939453125,23.6690776123047,3.84029946289062
4.79202098754817,1.38384855957031,22.9699707275391,3.89297189941406
4.79452763077734,0.885854614257812,22.6922433349609,4.15154567871094
4.79703427400651,0.24899697265625,22.1559421630859,4.64475122070312
4.79954091723567,-0.665588061523437,21.8111771240234,4.7884033203125
4.80204851977474,-0.97683427734375,21.6483714111328,4.68305844726562
4.8045561223138,-0.847547387695312,21.3562788085937,4.68784685058594
4.80706372485287,-1.49877023925781,21.1647426757812,4.53461794433594
4.8095721354974,-2.19308872070312,20.8870152832031,4.37660063476562
4.81208054614192,-2.17393510742187,20.2884648681641,4.45800349121094
4.81458895678645,-1.69030637207031,19.1392480712891,4.5968671875
4.81708991549955,-0.541089575195312,17.9229936279297,4.903325
4.81959087421265,0.36391865234375,16.9270057373047,5.48751020507812
4.82209183292575,0.751779321289062,16.0507279296875,5.98071574707031
4.82708782109849,0.397437475585937,10.5201220947266,5.33906970214844
4.83208380927123,0.167594116210937,9.64384428710937,5.31512768554687
4.83707979744397,-0.36391865234375,8.29351455078125,5.21457121582031
4.83957634312539,-0.622492431640625,6.79474431152344,5.16668718261719
4.84207288880682,-1.03908352050781,5.50187541503906,5.20020600585937
4.84456943448824,-1.24019645996094,4.22816013183594,5.23851323242187
4.84706501923216,-1.28808049316406,3.08373173828125,5.56412465820312
4.84956060397608,-1.09175595703125,2.09732065429687,5.899312890625
4.85205618872001,-0.732625708007812,1.18273562011719,6.52180532226562
4.85455047192313,-0.407014282226562,0.493205541992187,7.53215842285156
4.85704475512626,0.129286889648437,0.110133276367187,8.810662109375
4.85953903832938,1.14442839355469,-0.282515795898438,10.5871597412109
4.86173488967487,2.65756384277344,-0.541089575195312,12.0859299804687
4.86393074102035,4.33829340820312,-0.9193734375,13.0579758544922
4.86612659236584,5.54497104492187,-1.58974990234375,13.9342536621094
4.86838981252643,5.88015927734375,-1.75734401855469,14.9206647460937
4.87065303268703,5.98071574707031,-1.24019645996094,16.2709944824219
4.87291625284762,6.33505759277344,-0.665588061523437,17.9038400146484
4.87510410126342,6.82347473144531,-0.158017309570312,20.4704241943359
4.87729194967922,7.584830859375,0.177170922851562,24.1048223144531
4.87947979809501,8.03494077148437,0.78529814453125,27.6099335449219
4.88166285365057,7.97747993164062,1.95845695800781,30.7511261230469
4.88384590920613,7.13950935058594,3.52426484375,32.6425454345703
4.88602896476169,5.60722028808594,6.25365473632812,33.480516015625
4.8882113711202,3.2561142578125,10.0221281494141,32.94421484375
4.89039377747871,1.19231242675781,13.4458365234375,31.794998046875
4.89257618383723,-0.627280834960937,15.1648733154297,30.3872074707031
4.89475877704469,-2.16914670410156,14.4083055908203,29.41995
4.89694137025216,-3.30878669433594,12.4642138427734,29.1613762207031
4.89912396345962,-4.04141240234375,10.1322614257812,29.1613762207031
4.90137620130685,-4.97515104980469,7.69496413574219,28.9028024414062
4.90362843915407,-6.06211860351562,4.49631071777344,28.34734765625
4.9058806770013,-6.9336080078125,0.809240161132812,26.5756384277344
4.90813496001066,-8.22168850097656,-2.63362182617187,21.3227599853516
4.91038924302002,-9.25119521484375,-5.21935961914062,14.9972791992187
4.91264352602937,-9.25598361816406,-7.55131203613281,8.03015236816406
4.91489908804109,-8.93037219238281,-9.16979235839844,0.641646044921875
4.91715465005281,-8.05888278808594,-10.1753570556641,-6.44040246582031
4.91941021206453,-7.09162531738281,-10.0077629394531,-11.7555301513672
4.92173946833469,-6.0142345703125,-8.70531723632812,-14.7818010498047
4.92406872460484,-4.74051928710937,-6.63672700195312,-16.9940433837891
4.926397980875,-3.00232888183594,-5.1714755859375,-18.2438166503906
4.92873458233674,-2.04464821777344,-4.13718046875,-18.2246630371094
4.93107118379848,-1.08217915039062,-3.7924154296875,-17.8272255615234
4.93340778526023,0.560243188476563,-4.18985290527344,-17.3531736328125
4.93574712807242,2.08774384765625,-5.06134230957031,-16.9701013671875
4.93808647088462,3.19386501464844,-5.94240852050781,-16.9365825439453
4.94042581369681,3.9839515625,-6.50265170898437,-17.1568490966797
4.94276649182647,4.43884987792969,-6.94797321777344,-16.7689884277344
4.94510716995612,5.42526096191406,-7.21133540039062,-15.3181022216797
4.94744784808577,6.39251843261719,-7.28794985351562,-12.7084224121094
4.9497898056518,6.79953271484375,-7.07247170410156,-9.54328781738281
4.95213176321784,6.7803791015625,-6.46913288574219,-6.512228515625
4.95447372078387,6.44040246582031,-5.4779333984375,-3.48116921386719
4.95681637459246,6.19619389648437,-4.14675727539062,-0.445321508789062
4.95915902840105,6.02381137695312,-2.32237561035156,1.71903679199219
4.96150168220964,5.75087238769531,-0.407014282226562,2.0302830078125
4.96383741636763,5.35822331542969,1.32159931640625,0.584185205078125
4.96617315052561,4.81713374023437,2.74375510253906,-1.50834704589844
4.96850888468359,3.8690298828125,3.79720383300781,-3.57214887695312
4.97087571031292,2.96402165527344,4.49631071777344,-5.35343491210937
4.97324253594226,2.08774384765625,4.88417138671875,-6.28717355957031
4.97560936157159,1.31681091308594,5.34385810546875,-6.20098229980469
4.97795946931898,0.684741674804688,5.94719692382813,-5.23851323242187
4.98030957706637,0.100556469726563,6.68461103515625,-4.21858332519531
4.98265968481376,-0.502782348632812,7.64229169921875,-3.56736047363281
4.9850090433207,-1.09654436035156,8.58081875,-3.07894333496094
4.98735840182765,-1.66157595214844,9.45709655761719,-2.64798703613281
4.98970776033459,-2.1835119140625,10.2471831054687,-2.30801040039062
4.99205890334674,-2.59531459960937,10.955866796875,-1.92014973144531
4.9944100463589,-2.90656081542969,11.3389390625,-1.63284553222656
4.99676118937105,-3.16513459472656,11.4682259521484,-1.43173259277344
4.99911025490924,-3.33751711425781,11.2000753662109,-1.39821376953125
5.00145932044743,-3.43328518066406,10.6972930175781,-1.58017309570312
5.00380838598561,-3.35667072753906,9.98860932617187,-1.67115275878906
5.006216196641,-3.20823022460938,9.16979235839844,-1.55623107910156
5.00862400729639,-2.96881005859375,8.15465085449219,-1.33596452636719
5.01103181795178,-2.7581203125,7.14429775390625,-1.149216796875
5.01314281176688,-2.53306535644531,6.09563742675781,-1.01514150390625
5.01525380558198,-2.37025964355469,5.08049592285156,-0.890643017578125
5.01736479939708,-2.1835119140625,4.17069929199219,-0.579396801757812
5.01946941549951,-1.99197578125,3.36624753417969,-0.15322890625
5.02157403160194,-1.72861359863281,2.66714064941406,0.36391865234375
5.02367864770437,-1.41257897949219,2.08295544433594,0.9193734375
5.0257832623962,-1.05344873046875,1.50355864257812,1.27371528320312
5.02788787708805,-0.679953271484375,1.03908352050781,1.37427175292969
5.02999249177989,-0.3447650390625,0.723048901367187,1.51792385253906
5.03209805558197,-0.076614453125,0.450109912109375,1.4939818359375
5.03420361938406,0.225054956054687,0.253785375976562,1.53707746582031
5.03630918318614,0.450109912109375,0.086191259765625,1.6472107421875
5.03848290953162,0.603338818359375,-0.076614453125,1.92014973144531
5.0406566358771,0.761356127929687,-0.282515795898438,2.25054956054688
5.04283036222258,0.890643017578125,-0.454898315429687,2.79163913574219
5.04500540768699,0.97683427734375,-0.6512228515625,3.26090266113281
5.04718045315141,1.05344873046875,-0.9193734375,3.7924154296875
5.04935549861582,1.09654436035156,-1.20188923339844,4.20421811523437
5.05153330959673,1.16837041015625,-1.44609780273437,4.54419475097656
5.05371112057763,1.15879360351562,-1.64242233886719,4.5585599609375
5.05588893155854,1.08217915039062,-1.89141931152344,4.51067592773437
5.05806769696653,0.93852705078125,-1.94409174804687,4.39575424804687
5.06024646237452,0.890643017578125,-2.02549460449219,4.25689055175781
5.06242522778251,0.742202514648437,-2.12605107421875,4.213794921875
5.06460502118529,0.675164868164063,-2.08295544433594,4.15633408203125
5.06678481458807,0.617704028320312,-2.07337863769531,4.10366164550781
5.06896460799086,0.47884033203125,-2.0302830078125,4.02704719238281
5.07128284169312,0.368707055664062,-1.915361328125,3.76847341308594
5.07360107539538,0.186747729492187,-1.90099611816406,3.46201560058594
5.07591930909764,-0.009576806640625,-1.77649763183594,2.99275207519531
5.07823309633723,-0.13407529296875,-1.64242233886719,2.45645090332031
5.08054688357681,-0.28730419921875,-1.52271225585937,2.01591779785156
5.08286067081639,-0.392649072265625,-1.37427175292969,1.55144267578125
5.08516447860719,-0.407014282226562,-1.21146604003906,1.35511813964844
5.08746828639799,-0.392649072265625,-0.909796630859375,1.10133276367187
5.08977209418879,-0.373495458984375,-0.74699091796875,0.991199487304687
5.09206515690581,-0.229843359375,-0.565031591796875,0.627280834960937
5.09435821962282,-0.17238251953125,-0.430956298828125,0.272938989257812
5.09665128233984,-0.028730419921875,-0.507570751953125,-0.3064578125
5.098933567431,0.124498486328125,-0.569819995117188,-0.995987890625
5.10121585252215,0.272938989257812,-0.794874951171875,-1.77649763183594
5.1034981376133,0.4213794921875,-0.9576806640625,-2.45645090332031
5.10577610375913,0.699106884765625,-1.00556469726562,-2.7581203125
5.10805406990496,0.986411083984375,-1.23061965332031,-2.7581203125
5.11033203605079,1.29286889648437,-1.43652099609375,-2.53306535644531
5.11260647013282,1.62326872558594,-1.58017309570312,-2.26491477050781
5.11488090421485,1.89141931152344,-1.7238251953125,-2.11647426757812
5.11715533829688,2.15478149414062,-1.71903679199219,-2.12126267089844
5.12293215643925,2.15956989746094,-2.29843359375,-2.05901342773437
5.12870897458161,1.96324536132812,-2.15956989746094,-1.8770541015625
5.13448579272397,1.70467158203125,-1.98718737792969,-1.63763393554687
5.1367569354106,1.52271225585937,-1.78607443847656,-1.455674609375
5.13902807809724,1.3407529296875,-1.61848032226562,-1.21146604003906
5.14129922078387,1.149216796875,-1.44130939941406,-1.13963999023438
5.14357210598353,0.9576806640625,-1.31202250976562,-1.05823713378906
5.14584499118319,0.809240161132812,-1.15400520019531,-1.04387192382812
5.14811787638285,0.603338818359375,-1.04866032714844,-0.93852705078125
5.15039253567105,0.45968671875,-0.962469067382812,-0.8810662109375
5.15266719495925,0.234631762695312,-0.885854614257812,-0.799663354492188
5.15494185424745,0.1915361328125,-0.924161840820312,-0.737414111328125
5.15721917314936,0.047884033203125,-0.943315454101562,-0.770932934570312
5.15949649205126,-0.119710083007812,-0.995987890625,-0.588973608398437
5.16177381095317,-0.253785375976562,-1.02950671386719,-0.550666381835937
5.16418817097921,-0.512359155273437,-1.1109095703125,-0.44053310546875
5.16660253100526,-0.665588061523437,-1.13963999023438,-0.44053310546875
5.1690168910313,-0.857124194335937,-1.1875240234375,-0.392649072265625
5.17120615090543,-1.04866032714844,-1.19710083007812,-0.215478149414062
5.17339541077957,-1.23540805664062,-1.21146604003906,-0.220266552734375
5.1755846706537,-1.38384855957031,-1.18273562011719,-0.1149216796875
5.17776673597487,-1.56580788574219,-1.22104284667969,-0.067037646484375
5.17994880129605,-1.68551796875,-1.21146604003906,0.0047884033203125
5.18213086661722,-1.81001645507812,-1.16837041015625,-0.0383072265625
5.1842463647726,-1.92972653808594,-1.09654436035156,0.0622492431640625
5.18636186292797,-1.92972653808594,-1.05823713378906,0.201112939453125
5.18847736108335,-2.02070620117187,-0.933738647460937,0.201112939453125
5.19059174183422,-2.01112939453125,-0.857124194335937,0.3064578125
5.19270612258509,-2.00634099121094,-0.723048901367187,0.3064578125
5.19482050333595,-2.00155258789062,-0.588973608398437,0.526724365234375
5.19686211509811,-1.98718737792969,-0.416591088867187,0.67037646484375
5.19890372686027,-1.93451494140625,-0.234631762695312,0.737414111328125
5.20094533862243,-1.89141931152344,0.0239420166015625,0.732625708007812
5.2029862164436,-1.81001645507812,0.2681505859375,0.828393774414062
5.20502709426477,-1.73340200195312,0.469263525390625,0.833182177734375
5.20706797208594,-1.64242233886719,0.588973608398437,0.866701000976562
5.21223334588333,0.0622492431640625,1.13963999023438,1.04866032714844
5.21739871968071,0.24899697265625,1.06781394042969,1.01992990722656
5.22256409347809,0.301669409179687,1.01035310058594,0.981622680664062
5.22459823480839,0.426167895507812,0.948103857421875,0.9193734375
5.22663237613868,0.454898315429687,0.809240161132812,0.967257470703125
5.22866651746897,0.536301171875,0.713472094726562,0.967257470703125
5.2306681014835,0.617704028320312,0.63206923828125,0.981622680664062
5.23266968549802,0.656011254882812,0.488417138671875,1.01035310058594
5.23467126951254,0.723048901367187,0.407014282226562,0.981622680664062
5.23664020506544,0.775721337890625,0.258573779296875,0.93852705078125
5.23860914061834,0.828393774414062,0.15322890625,0.890643017578125
5.24057807617125,0.828393774414062,0.0526724365234375,0.871489404296875
5.24253836778366,0.857124194335937,-0.0814028564453125,0.86191259765625
5.24449865939608,0.74699091796875,-0.181959326171875,0.794874951171875
5.24645895100849,0.790086547851562,-0.32561142578125,0.718260498046875
5.24848687707457,0.723048901367187,-0.397437475585937,0.70868369140625
5.25051480314065,0.656011254882812,-0.426167895507812,0.718260498046875
5.25254272920673,0.63206923828125,-0.51714755859375,0.76614453125
5.25457548182445,0.560243188476563,-0.55545478515625,0.756567724609375
5.25660823444218,0.493205541992187,-0.59376201171875,0.756567724609375
5.25864098705991,0.411802685546875,-0.622492431640625,0.775721337890625
5.26067564645661,0.373495458984375,-0.636857641601562,0.794874951171875
5.26271030585331,0.301669409179687,-0.67037646484375,0.76614453125
5.26474496525002,0.277727392578125,-0.646434448242187,0.703895288085937
5.26677929576216,0.24899697265625,-0.622492431640625,0.713472094726562
5.26881362627431,0.24899697265625,-0.665588061523437,0.775721337890625
5.27084795678645,0.296881005859375,-0.656011254882812,0.699106884765625
5.2728830847297,0.234631762695312,-0.641646044921875,0.699106884765625
5.27491821267294,0.258573779296875,-0.598550415039062,0.7278373046875
5.27695334061619,0.24899697265625,-0.569819995117188,0.694318481445312
5.27905356247219,0.234631762695312,-0.536301171875,0.751779321289062
5.2811537843282,0.225054956054687,-0.483628735351562,0.775721337890625
5.28325400618421,0.167594116210937,-0.450109912109375,0.76614453125
5.28535670654228,0.1915361328125,-0.407014282226562,0.636857641601562
5.28745940690036,0.17238251953125,-0.40222587890625,0.665588061523437
5.28956210725843,0.1915361328125,-0.316034619140625,0.713472094726562
5.29166769205661,0.15322890625,-0.244208569335937,0.622492431640625
5.29377327685478,0.148440502929687,-0.167594116210937,0.703895288085937
5.29587886165295,0.124498486328125,-0.138863696289063,0.641646044921875
5.29798451859468,0.129286889648437,-0.067037646484375,0.70868369140625
5.30009017553641,0.0718260498046875,-0.009576806640625,0.723048901367187
5.30219583247814,0.0383072265625,0.0239420166015625,0.732625708007812
5.30428851714339,-0.028730419921875,0.105344873046875,0.76614453125
5.30638120180864,-0.047884033203125,0.186747729492187,0.828393774414062
5.30847388647389,-0.100556469726563,0.253785375976562,0.93852705078125
5.31055181978281,-0.076614453125,0.282515795898438,0.90021982421875
5.31262975309173,-0.138863696289063,0.359130249023437,0.895431420898437
5.31470768640065,-0.181959326171875,0.397437475585937,1.00077629394531
5.31682878599645,-0.239420166015625,0.426167895507812,1.03908352050781
5.31894988559226,-0.3064578125,0.416591088867187,1.02950671386719
5.32107098518807,-0.3447650390625,0.493205541992187,0.995987890625
5.32318210997104,-0.416591088867187,0.55545478515625,1.07739074707031
5.32529323475403,-0.430956298828125,0.5746083984375,1.11569797363281
5.32740435953701,-0.430956298828125,0.584185205078125,1.13485158691406
5.32951185834342,-0.47884033203125,0.584185205078125,1.11569797363281
5.33161935714984,-0.579396801757812,0.47884033203125,1.07260234375
5.33372685595625,-0.59376201171875,0.464475122070312,1.04866032714844
5.33583467474966,-0.660799658203125,0.392649072265625,0.948103857421875
5.33794249354306,-0.641646044921875,0.349553442382812,0.909796630859375
5.34005031233647,-0.679953271484375,0.2681505859375,0.8810662109375
5.34215811886858,-0.67037646484375,0.253785375976562,0.818816967773437
5.3442659254007,-0.641646044921875,0.272938989257812,0.842758984375
5.34637373193282,-0.636857641601562,0.258573779296875,0.86191259765625
5.34854937917675,-0.6512228515625,0.244208569335937,0.914585034179687
5.35072502642067,-0.646434448242187,0.282515795898438,0.948103857421875
5.3529006736646,-0.627280834960937,0.3064578125,1.13006318359375
5.35501051090418,-0.526724365234375,0.311246215820312,1.23540805664062
5.35712034814376,-0.507570751953125,0.258573779296875,1.24498486328125
5.35923018538335,-0.4979939453125,0.282515795898438,1.22104284667969
5.36126418755349,-0.407014282226562,0.239420166015625,1.13963999023438
5.36329818972362,-0.4213794921875,0.225054956054687,1.13963999023438
5.36533219189376,-0.368707055664062,0.239420166015625,1.00077629394531
5.36736578553525,-0.392649072265625,0.201112939453125,0.914585034179687
5.36939937917674,-0.368707055664062,0.21068974609375,0.876277807617187
5.37143297281823,-0.349553442382812,0.21068974609375,0.78529814453125
5.37346796891199,-0.335188232421875,0.24899697265625,0.74699091796875
5.37550296500574,-0.373495458984375,0.277727392578125,0.818816967773437
5.3775379610995,-0.330399829101562,0.368707055664062,0.866701000976562
5.37957263579568,-0.354341845703125,0.320823022460937,0.82360537109375
5.38160731049187,-0.349553442382812,0.349553442382812,0.885854614257812
5.38364198518806,-0.4213794921875,0.36391865234375,0.866701000976562
5.38567596012295,-0.44053310546875,0.301669409179687,0.842758984375
5.38770993505784,-0.521935961914062,0.311246215820312,0.895431420898437
5.38974390999274,-0.536301171875,0.301669409179687,0.93852705078125
5.39177810367764,-0.565031591796875,0.354341845703125,0.8810662109375
5.39381229736254,-0.636857641601562,0.411802685546875,0.924161840820312
5.39584649104744,-0.74699091796875,0.416591088867187,0.924161840820312
5.40001225176251,-0.909796630859375,0.775721337890625,1.38863696289062
5.40417801247758,-0.86191259765625,0.814028564453125,1.57538469238281
5.40834377319264,-0.770932934570312,0.866701000976562,1.61369191894531
5.41044309874602,-0.703895288085937,0.914585034179687,1.89141931152344
5.41254242429941,-0.665588061523437,0.948103857421875,2.10210905761719
5.41464174985279,-0.63206923828125,0.9576806640625,2.28406838378906
5.41671691125687,-0.579396801757812,0.97683427734375,2.57616098632812
5.41879207266096,-0.5746083984375,1.01992990722656,2.74375510253906
5.42086723406504,-0.483628735351562,1.02950671386719,3.06936652832031
5.42291702439707,-0.387860668945312,1.07260234375,3.21780703125
5.4249668147291,-0.339976635742188,1.09654436035156,3.39976635742187
5.42701660506113,-0.229843359375,1.16837041015625,3.47638081054687
5.42906012090315,-0.181959326171875,1.17794721679687,3.57693728027344
5.43110363674516,-0.148440502929687,1.17315881347656,3.61524450683594
5.43314715258718,-0.0814028564453125,1.15400520019531,3.62482131347656
5.43525313560584,-0.0335188232421875,1.11569797363281,3.67749375
5.43735911862449,-0.0143652099609375,1.08217915039062,3.71101257324219
5.43946510164315,0.009576806640625,1.02471831054687,3.64397492675781
5.44153649888707,0.0143652099609375,0.952892260742187,3.62960971679687
5.443607896131,0.0143652099609375,0.809240161132812,3.59130249023437
5.44567929337492,0.0239420166015625,0.694318481445312,3.57214887695312
5.4477140187981,0.067037646484375,0.617704028320312,3.55299526367187
5.44974874422129,0.0335188232421875,0.565031591796875,3.57214887695312
5.45178346964447,0.047884033203125,0.565031591796875,3.73974299316406
5.4538181084791,0.105344873046875,0.541089575195312,3.84987626953125
5.45585274731374,0.148440502929687,0.5746083984375,4.03183559570313
5.45788738614837,0.177170922851562,0.5746083984375,4.18506450195312
5.45998469197519,0.215478149414062,0.636857641601562,4.32392819824219
5.46208199780202,0.253785375976562,0.636857641601562,4.4819455078125
5.46417930362884,0.24899697265625,0.694318481445312,4.47236870117187
5.46643265877207,0.1915361328125,0.679953271484375,4.5585599609375
5.4686860139153,0.124498486328125,0.7278373046875,4.62559760742187
5.47093936905853,-0.01915361328125,0.76614453125,4.70221206054687
5.47319460359629,-0.0909796630859375,0.790086547851562,4.91290180664063
5.47544983813405,-0.09576806640625,0.818816967773437,5.03740029296875
5.47770507267181,-0.1915361328125,0.828393774414062,5.20499440917969
5.4799609614522,-0.282515795898438,0.737414111328125,5.50187541503906
5.48221685023258,-0.392649072265625,0.689530078125,5.80833322753906
5.48447273901297,-0.550666381835937,0.603338818359375,6.11000263671875
5.48665987101167,-0.689530078125,0.454898315429687,6.31111557617187
5.48884700301037,-0.885854614257812,0.40222587890625,6.30153876953125
5.49103413500907,-1.04866032714844,0.383072265625,6.18661708984375
5.4931514721944,-1.23061965332031,0.368707055664062,5.88015927734375
5.49526880937973,-1.52271225585937,0.282515795898438,5.68383474121094
5.49738614656506,-1.82917006835937,0.119710083007812,5.71256516113281
5.49950282728337,-1.77170922851562,0.177170922851562,6.57926616210937
5.50161950800169,-1.24019645996094,0.445321508789062,8.8872765625
5.50373618872,0.047884033203125,0.924161840820312,11.9374894775391
5.50585235256548,1.47961662597656,1.23061965332031,13.0483990478516
5.50796851641096,1.78607443847656,1.302445703125,11.3197854492187
5.51008468025644,1.05823713378906,1.82438166503906,7.20654699707031
5.52078813484627,3.13161577148437,39.5282694091797,16.0459395263672
5.53149158943609,3.90254870605469,36.7509954833984,22.6252056884766
5.54219504402592,4.70700046386719,36.3104623779297,28.1366579101562
5.5443117265346,5.21935961914062,37.3447574951172,31.0049114990234
5.54642840904328,4.79798012695312,38.5562235351562,30.7559145263672
5.54854509155196,4.77882651367187,38.7333944580078,28.0839854736328
5.55066229641307,4.49631071777344,37.0095692626953,24.0377846679687
5.55277950127418,3.26569106445312,34.4812923095703,20.0059490722656
5.5548967061353,2.11168586425781,31.9673805664062,15.5670991943359
5.55701390437748,0.972045874023437,29.8604831054687,10.5871597412109
5.55913110261967,0.186747729492187,27.5333190917969,6.53617053222656
5.56124830086186,-0.373495458984375,25.0146189453125,3.99831677246094
5.56336540524554,-1.10612116699219,22.2086145996094,2.82994636230469
5.56548250962922,-1.47482822265625,20.6811139404297,3.07415493164062
5.56759961401291,-1.99676418457031,19.7617405029297,3.41413156738281
5.56978078610491,-1.78607443847656,18.9094047119141,2.44208569335937
5.57196195819692,-1.34554133300781,18.2964890869141,0.407014282226562
5.57414313028893,-0.6512228515625,18.1336833740234,-1.12527478027344
5.57625814048858,0.177170922851562,18.004396484375,-0.871489404296875
5.57837315068822,0.646434448242187,18.004396484375,0.378283862304687
5.58048816088787,0.732625708007812,18.2821238769531,1.94888015136719
5.58260232722901,0.641646044921875,18.9381351318359,4.06535441894531
5.58471649357015,0.426167895507812,20.2070620117187,6.07169541015625
5.58683065991129,0.0909796630859375,22.0218668701172,7.06289489746094
5.58894735923854,-0.244208569335937,23.8462485351562,7.02937607421875
5.5910640585658,-0.9576806640625,25.4934592773437,6.33984599609375
5.59318075789305,-1.40300217285156,26.6043688476563,5.4779333984375
5.59529818475937,-1.762132421875,27.2412264892578,4.46758029785156
5.59741561162568,-2.1068974609375,27.504588671875,3.62482131347656
5.599533038492,-2.36547124023437,27.198130859375,2.67671745605469
5.6017115292689,-2.67192905273437,26.3218530517578,2.04464821777344
5.60389002004581,-2.69587106933594,24.8613900390625,1.73340200195312
5.60606851082271,-2.29364519042969,23.0944692138672,1.66636435546875
5.60817638441212,-1.81480485839844,21.2605107421875,1.4173673828125
5.61028425800153,-1.46525141601562,19.5989347900391,0.588973608398437
5.61239213159094,-1.21146604003906,18.1432601806641,-0.411802685546875
5.61442705661264,-1.00556469726562,16.7450464111328,-0.809240161132812
5.61646198163433,-0.871489404296875,15.5192151611328,-0.502782348632812
5.61849690665603,-0.780509741210937,14.5950533203125,0.541089575195312
5.62052980010222,-0.656011254882812,13.8145435791016,1.5322890625
5.62256269354841,-0.5746083984375,13.2351467773437,2.74854350585938
5.6245955869946,-0.512359155273437,12.9526309814453,3.7158009765625
5.62662478187308,-0.430956298828125,12.9861498046875,4.32392819824219
5.62865397675155,-0.292092602539062,13.1920511474609,4.83149895019531
5.63068317163003,-0.258573779296875,13.5703350097656,4.89853659667969
5.63277813386961,-0.282515795898438,13.9246768554687,4.74051928710937
5.6348730961092,-0.296881005859375,14.3508447509766,4.86980617675781
5.63696805834878,-0.4213794921875,14.7051865966797,5.20020600585937
5.6390630539,-0.541089575195312,14.9110879394531,5.68862314453125
5.64115804945121,-0.76614453125,15.0260096191406,6.06211860351562
5.64325304500242,-1.21146604003906,15.0595284423828,6.26323154296875
5.64534789699896,-1.63284553222656,15.0643168457031,6.46913288574219
5.64744274899549,-2.04943662109375,14.9781255859375,6.59363137207031
5.64953760099202,-2.36547124023437,14.9637603759766,6.76601389160156
5.65163242618733,-2.59052619628906,14.8057430664062,7.05810649414062
5.65372725138265,-2.84431157226562,14.5375924804687,7.15866296386719
5.65582207657796,-2.94007963867187,14.2838071044922,7.33583388671875
5.6578898888067,-2.94486804199219,14.1449434082031,7.4699091796875
5.65995770103543,-2.87783039550781,14.0491753417969,7.58961926269531
5.66202551326417,-2.67192905273437,13.9151000488281,7.83382783203125
5.66413515584229,-2.29843359375,13.8959464355469,8.03972917480469
5.66624479842041,-1.81001645507812,14.1210013916016,8.36534060058594
5.66835444099853,-1.22583125,14.3460563476562,8.47547387695312
5.6704634390454,-0.636857641601562,14.6189953369141,8.16901606445312
5.67257243709227,0.076614453125,14.9062995361328,7.52258161621094
5.67468143513914,0.866701000976562,15.0307980224609,7.04374128417969
5.67679031306882,1.49877023925781,15.2319109619141,6.8569935546875
5.67889919099851,2.06380183105469,15.6437136474609,6.95276162109375
5.68100806892819,2.77248552246094,16.0315743164062,7.44117875976562
5.68311624536049,3.36624753417969,16.625336328125,7.98705673828125
5.68522442179278,3.96479794921875,17.0371390136719,8.42280144042969
5.68733259822507,4.56813676757812,17.5973822021484,8.67658681640625
5.68944191050805,4.97036264648438,17.9469356445312,8.82023891601562
5.69155122279103,5.31033928222656,18.0857993408203,8.41322463378906
5.69366053507402,5.60722028808594,18.0953761474609,7.56567724609375
5.69577018459658,5.72214196777344,17.92778203125,6.79474431152344
5.69787983411915,5.7077767578125,17.5303445556641,6.44519086914062
5.69998948364172,5.67425793457031,17.0706578369141,6.47870969238281
5.70210295184918,5.58806667480469,16.4481654052734,6.89051237792969
5.70421642005664,5.46835659179687,15.6676556640625,7.26879624023437
5.70632988826411,5.27203205566406,14.9541835693359,7.78115539550781
5.70844470325977,5.05655390625,14.4609780273437,8.41801303710938
5.71055951825543,4.81234533691406,13.9917145019531,9.08360109863281
5.71267433325109,4.51067592773437,13.6277958496094,9.56722983398437
5.71478918926237,4.07493122558594,13.2638771972656,9.8449572265625
5.71690404527366,3.62003291015625,12.9669961914062,9.83538041992187
5.71901890128494,3.14598098144531,12.6461731689453,9.85453403320312
5.72113352834658,2.50433493652344,12.4163298095703,9.730035546875
5.72324815540821,1.89620771484375,12.1481792236328,9.69651672363281
5.72536278246984,1.33117612304687,11.9374894775391,9.67736311035156
5.72747083585526,0.74699091796875,11.7363765380859,9.55286462402344
5.72957888924068,0.196324536132812,11.4682259521484,9.41878933105469
5.7316869426261,-0.311246215820312,11.2479593994141,9.40442412109375
5.73379504397159,-0.8044517578125,11.0660000732422,9.423577734375
5.73590314531708,-1.20188923339844,10.8457335205078,9.4618849609375
5.73801124666257,-1.66157595214844,10.5919481445312,9.4618849609375
5.74012191549937,-2.03507141113281,10.3094323486328,9.48103857421875
5.74223258433617,-2.40856687011719,10.0508585693359,9.29429084472656
5.74434325317297,-2.73417829589844,9.89284125976562,9.12669672851562
5.74638427606794,-3.03584770507812,9.75876596679687,8.90643017578125
5.7484252989629,-3.28005627441406,9.70609353027344,8.72925925292969
5.75046632185787,-3.43807358398437,9.76355437011719,8.42758984375
5.75250676402367,-3.53863005371094,9.89762966308594,8.27914934082031
5.75454720618948,-3.64876333007812,9.98382092285156,8.0062103515625
5.75658764835528,-3.62960971679687,10.2040874755859,7.88650026855469
5.75868651022594,-3.55299526367187,10.4147772216797,7.92001909179687
5.7607853720966,-3.43328518066406,10.6015249511719,8.06845959472656
5.76288423396726,-3.29920988769531,10.7595422607422,8.19295808105469
5.76498538381535,-3.04063610839844,10.9893856201172,8.28872614746094
5.76708653366344,-2.81558115234375,11.1569797363281,8.11634362792969
5.76918768351153,-2.48039291992187,11.2766898193359,7.48427438964844
5.77128997224852,-2.18830031738281,11.3772462890625,6.98628044433594
5.77339226098551,-1.81480485839844,11.4490723388672,6.67982263183594
5.7754945497225,-1.455674609375,11.5065331787109,6.73249506835937
5.77759699557753,-1.1109095703125,11.4682259521484,6.742071875
5.77969944143257,-0.723048901367187,11.4011883056641,6.78995590820312
5.78180188728761,-0.407014282226562,11.3772462890625,6.71334145507812
5.78390442157581,-0.0909796630859375,11.3820346923828,6.51701691894531
5.786006955864,0.1915361328125,11.2288057861328,6.3973068359375
5.78810949015219,0.488417138671875,11.1426145263672,6.37815322265625
5.79021773559491,0.718260498046875,11.0276928466797,6.30153876953125
5.79232598103762,0.842758984375,10.8936175537109,6.37336481933594
5.79443422648033,1.05344873046875,10.7499654541016,6.5505357421875
5.79653856589006,1.16358200683594,10.5871597412109,6.70855305175781
5.79864290529979,1.17315881347656,10.5440641113281,7.04374128417969
5.80074724470951,1.20188923339844,10.4339308349609,7.36935270996094
5.80284890475725,1.10612116699219,10.4052004150391,7.77157858886719
5.804950564805,1.08696755371094,10.4147772216797,7.9295958984375
5.80705222485274,1.01514150390625,10.3237975585937,7.88650026855469
5.80915206947079,0.828393774414062,10.26633671875,7.82425102539062
5.81125191408885,0.694318481445312,10.2471831054687,7.7763669921875
5.8133517587069,0.545877978515625,10.2423947021484,7.80988581542969
5.81545045738312,0.411802685546875,10.2519715087891,7.99184514160156
5.81754915605933,0.282515795898438,10.3142207519531,8.05409438476562
5.81964785473555,0.110133276367187,10.3573163818359,8.09719001464844
5.82175716430586,0.0,10.3621047851562,8.20253488769531
5.82386647387617,-0.047884033203125,10.342951171875,8.18816967773437
5.82597578344648,-0.162805712890625,10.3046439453125,8.13070883789062
5.828085260226,-0.205901342773437,10.3046439453125,8.07324799804687
5.83019473700552,-0.277727392578125,10.2998555419922,8.10197841796875
5.83230421378504,-0.330399829101562,10.2807019287109,8.03494077148437
5.83441401000899,-0.36391865234375,10.2854903320312,8.06367119140625
5.83652380623295,-0.36391865234375,10.4147772216797,8.10197841796875
5.83863360245691,-0.282515795898438,10.6158901611328,8.18338127441406
5.84074323863312,-0.311246215820312,10.7547538574219,8.14507404785156
5.84285287480934,-0.253785375976562,10.8600987304687,8.13549724121094
5.84496251098555,-0.177170922851562,10.8505219238281,8.02536396484375
5.84707112296471,-0.100556469726563,10.8074262939453,8.05888278808594
5.84917973494387,-0.0622492431640625,10.6111017578125,8.1594392578125
5.85128834692303,-0.028730419921875,10.4722380615234,8.14507404785156
5.85339810441001,-0.01915361328125,10.2998555419922,8.12592043457031
5.855507861897,-0.086191259765625,10.1801454589844,8.06367119140625
5.85761761938399,-0.0143652099609375,10.0891657958984,8.05888278808594
5.85973249731368,0.0909796630859375,10.0221281494141,8.0062103515625
5.86184737524337,0.0909796630859375,9.98382092285156,7.967903125
5.86396225317306,0.0814028564453125,9.98860932617187,7.90086547851562
5.86607606914528,0.105344873046875,9.96945571289062,7.98226833496094
5.8681898851175,0.177170922851562,9.89762966308594,8.03972917480469
5.87030370108972,0.138863696289063,9.81143840332031,8.1594392578125
5.87241763056021,0.100556469726563,9.72045874023437,8.22168850097656
5.87453156003069,0.0383072265625,9.62947907714844,8.23126530761719
5.87664548950117,-0.067037646484375,9.59596025390625,8.14986245117187
5.87875969902808,-0.177170922851562,9.51455739746094,8.14507404785156
5.88087390855498,-0.2681505859375,9.43794294433594,8.06367119140625
5.88298811808188,-0.368707055664062,9.423577734375,8.05409438476562
5.88501941126764,-0.383072265625,9.40442412109375,8.00142194824219
5.88705070445341,-0.536301171875,9.35654008789063,7.89607707519531
5.88908199763917,-0.59376201171875,9.3852705078125,7.891288671875
5.89110871508709,-0.7278373046875,9.40442412109375,7.84819304199219
5.89313543253501,-0.780509741210937,9.44273134765625,7.97747993164062
5.89516214998294,-0.8810662109375,9.44273134765625,8.02057556152344
5.89718846259144,-0.924161840820312,9.52413420410156,8.12592043457031
5.89921477519995,-0.952892260742187,9.48582697753906,8.17859287109375
5.90124108780846,-0.972045874023437,9.46667336425781,8.28393774414062
5.90333785484404,-0.995987890625,9.49061538085937,8.25520732421875
5.90543462187963,-1.00077629394531,9.4618849609375,8.27914934082031
5.90753138891522,-1.01035310058594,9.47625017089844,8.18338127441406
5.90970523016956,-1.04387192382812,9.44273134765625,8.17859287109375
5.91187907142389,-1.04387192382812,9.43315454101563,8.13070883789062
5.91405291267823,-1.04866032714844,9.49061538085937,8.17859287109375
5.91622746009577,-1.00556469726562,9.46667336425781,8.26957253417969
5.91840200751332,-1.01514150390625,9.48582697753906,8.21211169433594
5.92057655493086,-1.00556469726562,9.4618849609375,8.14507404785156
5.92275112849858,-0.986411083984375,9.41400092773437,8.0828248046875
5.92492570206629,-1.01035310058594,9.33738647460937,8.04930598144531
5.927100275634,-1.01992990722656,9.27992563476562,7.95832631835937
5.92932707804286,-0.991199487304687,9.22725319824219,7.99663354492187
5.93155388045171,-0.995987890625,9.16500395507812,7.97747993164062
5.93378068286057,-0.986411083984375,9.05965908203125,7.98705673828125
5.93597990356369,-0.948103857421875,9.00698664550781,7.95832631835937
5.9381791242668,-0.895431420898437,8.86812294921875,7.94396110839844
5.94037834496992,-0.924161840820312,8.76756647949219,7.78594379882812
5.94256996166914,-0.857124194335937,8.7723548828125,7.78115539550781
5.94476157836836,-0.833182177734375,8.66222160644531,7.69017573242187
5.94695319506759,-0.818816967773437,8.56645354003906,7.58004245605469
5.94914229722687,-0.818816967773437,8.56645354003906,7.50342800292969
5.95133139938615,-0.82360537109375,8.48026228027344,7.50821640625
5.95352050154543,-0.78529814453125,8.42758984375,7.43639035644531
5.9599994457186,0.05746083984375,8.34139858398438,7.51300480957031
5.96647838989177,0.110133276367187,8.39885942382812,7.58004245605469
5.97295733406494,0.162805712890625,8.43716665039062,7.61356127929687
5.9749996061461,0.177170922851562,8.48505068359375,7.70932934570312
5.97704187822726,0.229843359375,8.52814631347656,7.76200178222656
5.97908415030842,0.3064578125,8.57124194335938,7.84340463867187
5.98112592276936,0.301669409179687,8.59518395996094,7.80509741210937
5.9831676952303,0.277727392578125,8.59997236328125,7.85776984863281
5.98520946769124,0.277727392578125,8.63827958984375,7.78594379882812
5.98949966463135,0.158017309570312,8.80108530273437,7.61356127929687
5.99378986157146,0.129286889648437,8.79150849609375,7.584830859375
5.99808005851157,0.0814028564453125,8.79629689941406,7.56088884277344
6.00026009627198,0.0239420166015625,8.7723548828125,7.63271489257812
6.0024401340324,-0.0383072265625,8.75798967285156,7.52258161621094
6.00462017179282,-0.0622492431640625,8.68616362304688,7.58004245605469
6.00680191707277,-0.162805712890625,8.64306799316406,7.62792648925781
6.00898366235272,-0.263362182617187,8.59997236328125,7.67581052246094
6.01116540763267,-0.368707055664062,8.59518395996094,7.74284816894531
6.01334513648738,-0.445321508789062,8.60476076660156,7.68059892578125
6.01552486534209,-0.526724365234375,8.57124194335938,7.64229169921875
6.0177045941968,-0.641646044921875,8.55687673339844,7.60877287597656
6.0198532628844,-0.74699091796875,8.57124194335938,7.55610043945312
6.02200193157201,-0.814028564453125,8.55687673339844,7.52737001953125
6.02415060025962,-0.924161840820312,8.52814631347656,7.49385119628906
6.02627663172663,-0.93852705078125,8.59039555664062,7.3932947265625
6.02840266319365,-0.933738647460937,8.57124194335938,7.41244833984375
6.03052869466066,-1.00077629394531,8.59518395996094,7.37892951660156
6.03701122721274,-0.852335791015625,8.60954916992188,7.06289489746094
6.04349375976482,-0.799663354492188,8.6191259765625,6.94797321777344
6.0499762923169,-0.76614453125,8.61433757324219,6.95276162109375
6.05215679665718,-0.694318481445312,8.65264479980469,6.92881960449219
6.05433730099746,-0.627280834960937,8.62870278320312,6.95755002441406
6.05651780533773,-0.579396801757812,8.62391437988281,6.96233842773437
6.05863045301569,-0.531512768554687,8.60476076660156,6.96712683105469
6.06074310069364,-0.531512768554687,8.58081875,7.02937607421875
6.06285574837159,-0.430956298828125,8.57603034667969,7.01501086425781
6.06496402018149,-0.354341845703125,8.53772312011719,7.0485296875
6.06707229199139,-0.349553442382812,8.48983908691406,7.10120212402344
6.0691805638013,-0.3064578125,8.47547387695312,7.15387456054687
6.07128805262508,-0.272938989257812,8.44674345703125,7.22091220703125
6.07339554144886,-0.229843359375,8.42280144042969,7.2400658203125
6.07550303027264,-0.1915361328125,8.39885942382812,7.21133540039062
6.07767963834556,-0.186747729492187,8.41801303710938,7.2400658203125
6.07985624641847,-0.167594116210937,8.31745656738281,7.278373046875
6.08203285449139,-0.0622492431640625,8.33182177734375,7.29273825683594
6.08421091905302,-0.086191259765625,8.29351455078125,7.35019909667969
6.08638898361465,-0.0383072265625,8.28393774414062,7.28316145019531
6.08856704817629,-0.0239420166015625,8.22168850097656,7.2400658203125
6.09068073882299,0.028730419921875,8.22647690429687,7.26400783691406
6.0927944294697,0.0430956298828125,8.2360537109375,7.26879624023437
6.0949081201164,0.067037646484375,8.197746484375,7.24964262695312
6.09701975564157,0.0718260498046875,8.11155522460937,7.24485422363281
6.09913139116675,0.09576806640625,8.07803640136719,7.36456430664062
6.10124302669192,0.119710083007812,8.06367119140625,7.33104548339844
6.10335149272925,0.0718260498046875,8.06845959472656,7.3549875
6.10545995876657,0.076614453125,7.99184514160156,7.33583388671875
6.1075684248039,0.0143652099609375,8.01578715820312,7.278373046875
6.10974276464765,-0.0430956298828125,8.00142194824219,7.20654699707031
6.1119171044914,-0.105344873046875,8.05409438476562,7.11556733398437
6.11409144433514,-0.158017309570312,8.07324799804687,7.03895288085937
6.11626474652699,-0.24899697265625,8.0828248046875,7.0102224609375
6.11843804871883,-0.258573779296875,8.0828248046875,6.95755002441406
6.12061135091068,-0.349553442382812,8.14028564453125,6.93839641113281
6.12278471918324,-0.407014282226562,8.14507404785156,6.83305153808594
6.12495808745581,-0.454898315429687,8.21211169433594,6.80910952148437
6.12713145572837,-0.474051928710937,8.18816967773437,6.70855305175781
6.12924690592369,-0.550666381835937,8.21690009765625,6.64630380859375
6.131362356119,-0.627280834960937,8.19295808105469,6.7037646484375
6.13347780631432,-0.713472094726562,8.24563051757812,6.67024582519531
6.13574140429609,-0.775721337890625,8.23126530761719,6.67503422851562
6.13800500227787,-0.770932934570312,8.23126530761719,6.73249506835937
6.14026860025965,-0.809240161132812,8.21690009765625,6.73728347167969
6.1425358151034,-0.866701000976562,8.21690009765625,6.71812985839844
6.14480302994716,-0.866701000976562,8.2743609375,6.76601389160156
6.14707024479091,-0.905008227539062,8.2360537109375,6.84262834472656
6.14933769379264,-0.871489404296875,8.28393774414062,6.81389792480469
6.15160514279437,-0.924161840820312,8.27914934082031,6.92881960449219
6.1538725917961,-0.905008227539062,8.27914934082031,6.90008918457031
6.15614477734297,-0.857124194335937,8.28393774414062,6.87135876464844
6.15841696288985,-0.86191259765625,8.2743609375,6.90966599121094
6.16068914843672,-0.799663354492188,8.29830295410156,6.85220515136719
6.16289537250356,-0.775721337890625,8.29351455078125,6.79953271484375
6.16510159657039,-0.7278373046875,8.29351455078125,6.69897624511719
6.16730782063723,-0.689530078125,8.2360537109375,6.68939943847656
6.16943743749922,-0.699106884765625,8.27914934082031,6.67982263183594
6.1715670543612,-0.656011254882812,8.2743609375,6.6271501953125
6.17369667122318,-0.588973608398437,8.18816967773437,6.68461103515625
6.17582523806346,-0.5746083984375,8.18338127441406,6.73728347167969
6.17795380490374,-0.521935961914062,8.12592043457031,6.75164868164062
6.18008237174402,-0.493205541992187,8.09240161132812,6.84741674804687
6.1865674932718,-0.3064578125,7.97747993164062,6.58405456542969
6.19305261479958,-0.354341845703125,7.98226833496094,6.56011254882812
6.19953773632736,-0.32561142578125,8.01099875488281,6.63672700195312
6.2017173962666,-0.2681505859375,7.97747993164062,6.59363137207031
6.20389705620584,-0.28730419921875,8.03494077148437,6.53617053222656
6.20607671614508,-0.320823022460937,8.06367119140625,6.56011254882812
6.20825692078917,-0.320823022460937,8.05409438476562,6.49786330566406
6.21043712543327,-0.316034619140625,8.09240161132812,6.46434448242187
6.21261733007736,-0.311246215820312,8.10197841796875,6.47870969238281
6.21476658615375,-0.316034619140625,8.16901606445312,6.40688364257812
6.21691584223014,-0.36391865234375,8.21690009765625,6.33505759277344
6.21906509830653,-0.354341845703125,8.19295808105469,6.38294162597656
6.22118272265548,-0.339976635742188,8.25999572753906,6.31590397949219
6.22330034700444,-0.292092602539062,8.2360537109375,6.358999609375
6.22541797135339,-0.335188232421875,8.2743609375,6.36378801269531
6.22759787033343,-0.316034619140625,8.30787976074219,6.46913288574219
6.22977776931347,-0.2681505859375,8.25999572753906,6.50265170898437
6.2319576682935,-0.354341845703125,8.25041892089844,6.45476767578125
6.2341370713968,-0.359130249023437,8.2743609375,6.4356140625
6.2363164745001,-0.407014282226562,8.28872614746094,6.37815322265625
6.2384958776034,-0.45968671875,8.25520732421875,6.36378801269531
6.2406753807501,-0.469263525390625,8.26478413085937,6.358999609375
6.2428548838968,-0.51714755859375,8.25520732421875,6.31111557617187
6.2450343870435,-0.545877978515625,8.26478413085937,6.26801994628906
6.24721387478222,-0.550666381835937,8.30787976074219,6.16267507324219
6.24939336252093,-0.584185205078125,8.31745656738281,6.12915625
6.25157285025965,-0.636857641601562,8.29830295410156,6.13873305664062
6.25368950010774,-0.627280834960937,8.29830295410156,6.0908490234375
6.25580614995583,-0.641646044921875,8.27914934082031,6.12436784667969
6.25792279980392,-0.660799658203125,8.23126530761719,6.02381137695312
6.26010757541156,-0.622492431640625,8.24084211425781,6.00465776367187
6.26229235101919,-0.627280834960937,8.20253488769531,5.94240852050781
6.26447712662683,-0.627280834960937,8.19295808105469,6.02381137695312
6.26665947656172,-0.569819995117188,8.18338127441406,5.99029255371094
6.26884182649662,-0.569819995117188,8.13070883789062,6.11479104003906
6.27102417643151,-0.507570751953125,8.07803640136719,6.23928952636719
6.27320420713897,-0.507570751953125,8.06367119140625,6.11479104003906
6.27538423784643,-0.44053310546875,8.04930598144531,6.11957944335937
6.27756426855389,-0.387860668945312,8.05409438476562,6.13394465332031
6.2796826735018,-0.368707055664062,8.06367119140625,5.96156213378906
6.28180107844972,-0.397437475585937,8.06845959472656,5.98550415039062
6.28391948339764,-0.296881005859375,8.05409438476562,6.04296499023437
6.28588196896622,-0.263362182617187,8.02536396484375,5.95198532714844
6.28784445453481,-0.239420166015625,7.99184514160156,5.84664045410156
6.28980694010339,-0.201112939453125,8.05888278808594,5.84185205078125
6.29183454557214,-0.229843359375,8.01099875488281,5.79875642089844
6.2938621510409,-0.201112939453125,7.97269152832031,5.72693037109375
