timestamp,accel_x (m/s2),accel_y (m/s2),accel_z (m/s2)
0.0034090935872418,1.05344873046875,8.67658681640625,1.51313544921875
0.00681818717448361,1.58017309570312,9.18415756835937,0.67037646484375
0.0102272807617254,1.63763393554687,9.16021555175781,0.699106884765625
0.0170504913737043,1.67594116210937,9.13627353515625,0.617704028320312
0.0238737019856832,1.71424838867187,9.09317790527344,0.751779321289062
0.0306969125976622,1.7238251953125,9.09317790527344,0.794874951171875
0.0375259101020096,1.72861359863281,9.04050546875,0.833182177734375
0.0443549076063571,1.74776721191406,9.02614025878906,0.742202514648437
0.0511839051107046,1.77170922851562,9.05008227539062,0.833182177734375
0.0580157105577589,1.83395847167969,9.06923588867187,0.847547387695312
0.0648475160048131,1.79086284179687,9.14585034179687,0.866701000976562
0.0716793214518674,1.59932670898438,9.21288798828125,0.9193734375
0.0785135985786051,1.60411511230469,9.26556042480469,0.967257470703125
0.0853478757053428,1.55144267578125,9.39484731445313,0.972045874023437
0.0921821528320805,1.52271225585937,9.48582697753906,1.04387192382812
0.0990760620117754,1.47482822265625,9.62947907714844,1.10133276367187
0.10596997119147,1.38863696289062,9.74440075683594,1.12527478027344
0.112863880371165,1.28329208984375,9.83059201660156,1.28329208984375
0.119762769585582,1.23540805664062,9.96945571289062,1.38384855957031
0.126661658799999,1.149216796875,10.0748005859375,1.26892687988281
0.133560548014415,1.08217915039062,10.2423947021484,1.11569797363281
0.14391408894866,0.689530078125,10.6206785644531,1.06781394042969
0.154267629882905,0.59376201171875,10.6877162109375,1.12527478027344
0.164621170817149,0.4979939453125,10.7643306640625,1.09654436035156
0.17167102411576,0.407014282226562,10.8600987304687,1.1109095703125
0.178720877414371,0.272938989257812,10.9223479736328,1.06781394042969
0.185770730712981,0.186747729492187,10.9319247802734,1.12048637695313
0.192824223985556,0.047884033203125,10.9510783935547,1.10612116699219
0.19987771725813,-0.0335188232421875,10.9702320068359,1.12527478027344
0.206931210530705,-0.129286889648437,10.9989624267578,1.14442839355469
0.213986872857099,-0.2681505859375,11.0037508300781,1.08217915039062
0.221042535183493,-0.330399829101562,11.0133276367187,1.18273562011719
0.228098197509887,-0.373495458984375,10.9702320068359,1.149216796875
0.235158136094955,-0.483628735351562,10.9702320068359,1.19710083007812
0.242218074680023,-0.474051928710937,10.9702320068359,1.20188923339844
0.249278013265091,-0.512359155273437,10.9798088134766,1.149216796875
0.25633985593002,-0.622492431640625,10.955866796875,1.11569797363281
0.26340169859495,-0.617704028320312,10.9127711669922,1.12048637695313
0.270463541259879,-0.55545478515625,10.8600987304687,1.17794721679687
0.277530098768563,-0.545877978515625,10.87925234375,1.24019645996094
0.284596656277247,-0.584185205078125,10.8265799072266,1.22583125
0.291663213785931,-0.502782348632812,10.7691190673828,1.23540805664062
0.309337221272926,-0.234631762695312,10.3477395751953,0.943315454101562
0.327011228759922,-0.201112939453125,10.3190091552734,0.962469067382812
0.344685236246917,-0.148440502929687,10.2232410888672,0.933738647460937
0.36632501923305,0.354341845703125,9.79228479003906,0.876277807617187
0.387964802219183,0.349553442382812,9.74918916015625,0.857124194335937
0.409604585205315,0.354341845703125,9.70609353027344,0.837970581054687
0.41689589173744,0.36391865234375,9.71567033691406,0.790086547851562
0.424187198269564,0.378283862304687,9.71567033691406,0.876277807617187
0.431478504801689,0.359130249023437,9.71088193359375,0.842758984375
0.438772737332078,0.359130249023437,9.72045874023437,0.866701000976562
0.446066969862467,0.292092602539062,9.71088193359375,0.924161840820312
0.453361202392855,0.316034619140625,9.730035546875,0.814028564453125
0.460657171576888,0.301669409179687,9.6917283203125,0.799663354492188
0.467953140760921,0.292092602539062,9.730035546875,0.7278373046875
0.475249109944954,0.253785375976562,9.71567033691406,0.665588061523437
0.482546760010057,0.239420166015625,9.68215151367187,0.694318481445312
0.48984441007516,0.21068974609375,9.70609353027344,0.584185205078125
0.497142060140263,0.220266552734375,9.72524714355469,0.641646044921875
0.504441547444955,0.196324536132812,9.77313117675781,0.684741674804688
0.511741034749647,0.205901342773437,9.74918916015625,0.612915625
0.51904052205434,0.186747729492187,9.74918916015625,0.646434448242187
0.526341433729693,0.24899697265625,9.84016882324219,0.622492431640625
0.533642345405047,0.201112939453125,9.84016882324219,0.675164868164063
0.5409432570804,0.258573779296875,9.84974562988281,0.5746083984375
0.577630520209771,0.282515795898438,10.1753570556641,0.383072265625
0.614317783339141,0.263362182617187,10.1514150390625,0.45968671875
0.651005046468512,0.24899697265625,10.1562034423828,0.450109912109375
0.658522824680323,0.239420166015625,10.1322614257812,0.426167895507812
0.666040602892134,0.215478149414062,10.1274730224609,0.45968671875
0.673558381103945,0.201112939453125,10.0939541992188,0.502782348632812
0.681078444363498,0.17238251953125,10.1035310058594,0.445321508789062
0.688598507623051,0.1149216796875,10.0843773925781,0.45968671875
0.696118570882604,0.13407529296875,10.0460701660156,0.454898315429687
0.703640730062294,0.0909796630859375,10.0460701660156,0.430956298828125
0.711162889241985,0.0909796630859375,10.0748005859375,0.45968671875
0.718685048421676,0.0383072265625,10.1083194091797,0.450109912109375
0.72620999753192,0.0239420166015625,10.1131078125,0.426167895507812
0.733734946642163,-0.01915361328125,10.0795889892578,0.435744702148437
0.741259895752407,-0.0047884033203125,10.0891657958984,0.435744702148437
0.748786595405188,-0.0814028564453125,10.1562034423828,0.387860668945312
0.756313295057969,-0.0383072265625,10.1131078125,0.387860668945312
0.76383999471075,-0.067037646484375,10.0987426025391,0.469263525390625
0.771368207058842,-0.100556469726563,10.1370498291016,0.373495458984375
0.778896419406934,-0.100556469726563,10.1322614257812,0.45968671875
0.786424631755025,-0.21068974609375,10.1562034423828,0.426167895507812
0.793954304606591,-0.201112939453125,10.1466266357422,0.373495458984375
0.801483977458157,-0.24899697265625,10.1801454589844,0.392649072265625
0.809013650309723,-0.272938989257812,10.1753570556641,0.32561142578125
0.843510802924766,0.28730419921875,9.6917283203125,0.009576806640625
0.87800795553981,0.292092602539062,9.62947907714844,0.0622492431640625
0.912505108154853,0.32561142578125,9.56244143066406,0.0383072265625
0.920265857720833,0.339976635742188,9.58638344726563,0.0622492431640625
0.928026607286813,0.335188232421875,9.56244143066406,0.009576806640625
0.935787356852792,0.36391865234375,9.56244143066406,0.0239420166015625
0.943552275038558,0.330399829101562,9.55286462402344,-0.0047884033203125
0.951317193224324,0.335188232421875,9.54807622070313,0.0909796630859375
0.95908211141009,0.301669409179687,9.50498059082031,0.0383072265625
0.966850009630583,0.301669409179687,9.52892260742187,0.129286889648437
0.974617907851076,0.244208569335937,9.55765302734375,0.105344873046875
0.982385806071569,0.253785375976562,9.56722983398437,0.01915361328125
0.990155227404034,0.1915361328125,9.56722983398437,0.09576806640625
0.997924648736498,0.196324536132812,9.576806640625,0.067037646484375
1.00569407006896,0.162805712890625,9.61990227050781,0.0909796630859375
1.01346498065924,0.119710083007812,9.64384428710937,0.110133276367187
1.02123589124952,0.100556469726563,9.63905588378906,0.076614453125
1.02900680183979,0.076614453125,9.62947907714844,0.0718260498046875
1.0367792081983,0.0430956298828125,9.62947907714844,0.181959326171875
1.04455161455681,0.0143652099609375,9.62469067382813,0.124498486328125
1.05232402091531,0.0239420166015625,9.69651672363281,0.17238251953125
1.09136270895786,-0.320823022460937,9.39963571777344,0.21068974609375
1.1304013970004,-0.282515795898438,9.41878933105469,0.186747729492187
1.16944008504294,-0.28730419921875,9.45709655761719,0.229843359375
1.17727397989972,-0.2681505859375,9.47146176757813,0.239420166015625
1.1851078747565,-0.258573779296875,9.45709655761719,0.234631762695312
1.19294176961328,-0.229843359375,9.47146176757813,0.229843359375
1.2007784229336,-0.225054956054687,9.48103857421875,0.258573779296875
1.20861507625392,-0.17238251953125,9.51934580078125,0.2681505859375
1.21645172957424,-0.13407529296875,9.52892260742187,0.258573779296875
1.22429019213934,-0.15322890625,9.52892260742187,0.277727392578125
1.23212865470445,-0.186747729492187,9.54807622070313,0.282515795898438
1.23996711726955,-0.129286889648437,9.61032546386719,0.330399829101562
1.24780834795532,-0.119710083007812,9.64863269042969,0.21068974609375
1.25564957864108,-0.177170922851562,9.63905588378906,0.24899697265625
1.26349080932685,-0.167594116210937,9.65342109375,0.220266552734375
1.27139937030775,-0.201112939453125,9.73482395019531,0.277727392578125
1.27930793128865,-0.215478149414062,9.72524714355469,0.234631762695312
1.28721649226956,-0.253785375976562,9.78749638671875,0.1915361328125
1.29512732354126,-0.282515795898438,9.82101520996094,0.258573779296875
1.30303815481297,-0.3064578125,9.81143840332031,0.229843359375
1.31094898608468,-0.335188232421875,9.87368764648437,0.215478149414062
1.31886138918797,-0.392649072265625,9.9215716796875,0.215478149414062
1.32677379229127,-0.387860668945312,9.93114848632812,0.229843359375
1.33468619539457,-0.397437475585937,9.96945571289062,0.225054956054687
1.34260016240847,-0.454898315429687,9.94551369628906,0.201112939453125
1.35051412942237,-0.488417138671875,9.98382092285156,0.196324536132812
1.35842809643626,-0.474051928710937,10.0317049560547,0.225054956054687
1.36634371590241,-0.493205541992187,9.97903251953125,0.129286889648437
1.37425933536857,-0.502782348632812,9.9981861328125,0.138863696289063
1.38217495483472,-0.502782348632812,9.98860932617187,0.110133276367187
1.39024036401441,-0.512359155273437,9.99339772949219,0.110133276367187
1.3983057731941,-0.488417138671875,10.0077629394531,0.076614453125
1.4063711823738,-0.536301171875,9.97424411621094,0.0814028564453125
1.41444094148839,-0.47884033203125,9.99339772949219,0.119710083007812
1.42251070060298,-0.521935961914062,9.97903251953125,0.05746083984375
1.43058045971757,-0.512359155273437,10.0125513427734,0.13407529296875
1.4386527226299,-0.483628735351562,9.95509050292969,0.028730419921875
1.44672498554223,-0.4979939453125,9.94072529296875,0.09576806640625
1.45479724845456,-0.488417138671875,9.90720646972656,-0.0143652099609375
1.46301859795543,-0.493205541992187,9.95030209960937,0.0239420166015625
1.4712399474563,-0.464475122070312,9.94072529296875,0.028730419921875
1.47946129695718,-0.502782348632812,9.85453403320312,-0.009576806640625
1.48776066468721,-0.502782348632812,9.84974562988281,-0.0383072265625
1.49606003241725,-0.502782348632812,9.79707319335937,-0.028730419921875
1.50435940014729,-0.4979939453125,9.84016882324219,-0.0335188232421875
1.51266246948322,-0.531512768554687,9.78749638671875,-0.0383072265625
1.52096553881916,-0.526724365234375,9.75876596679687,-0.105344873046875
1.5292686081551,-0.526724365234375,9.70130512695312,-0.124498486328125
1.55418186868027,-0.488417138671875,9.68693991699219,-0.105344873046875
1.57909512920544,-0.464475122070312,9.68693991699219,-0.119710083007812
1.60400838973062,-0.416591088867187,9.74440075683594,-0.028730419921875
1.61231576462211,-0.373495458984375,9.75397756347656,-0.0430956298828125
1.6206231395136,-0.359130249023437,9.7683427734375,-0.105344873046875
1.62893051440509,-0.32561142578125,9.78270798339844,-0.0383072265625
1.63723938593287,-0.311246215820312,9.8449572265625,-0.0430956298828125
1.64554825746065,-0.272938989257812,9.90241806640625,-0.0909796630859375
1.65385712898843,-0.21068974609375,9.98860932617187,-0.086191259765625
1.6622349894485,-0.129286889648437,10.036493359375,-0.0047884033203125
1.67061284990858,-0.0909796630859375,10.1274730224609,-0.0383072265625
1.67899071036866,-0.0383072265625,10.1801454589844,-0.0143652099609375
1.71250829315947,-0.009576806640625,10.4291424316406,-0.05746083984375
1.74602587595028,-0.0335188232421875,10.419565625,-0.05746083984375
1.7795434587411,-0.1149216796875,10.3860468017578,-0.028730419921875
1.8046875166838,-0.560243188476563,10.0221281494141,-0.181959326171875
1.82983157462651,-0.5746083984375,10.0029745361328,-0.263362182617187
1.85497563256921,-0.579396801757812,10.0125513427734,-0.138863696289063
1.8633593229989,-0.584185205078125,9.9981861328125,-0.143652099609375
1.87174301342859,-0.627280834960937,10.0029745361328,-0.21068974609375
1.88012670385827,-0.608127221679687,10.0125513427734,-0.148440502929687
1.88858157364994,-0.617704028320312,10.0556469726563,-0.158017309570312
1.89703644344161,-0.63206923828125,10.0939541992188,-0.13407529296875
1.90549131323328,-0.675164868164063,10.0891657958984,-0.158017309570312
1.91410355509526,-0.603338818359375,10.1131078125,-0.143652099609375
1.92271579695724,-0.579396801757812,10.0939541992188,-0.105344873046875
1.93132803881922,-0.536301171875,10.1131078125,-0.067037646484375
1.93994256117166,-0.512359155273437,10.1322614257812,-0.13407529296875
1.9485570835241,-0.541089575195312,10.1609918457031,-0.0622492431640625
1.95717160587653,-0.526724365234375,10.1514150390625,-0.0909796630859375
1.96578772740431,-0.464475122070312,10.1705686523437,0.01915361328125
1.97440384893209,-0.430956298828125,10.1657802490234,-0.086191259765625
1.98301997045987,-0.387860668945312,10.1849338623047,-0.0335188232421875
1.9916376349564,-0.354341845703125,10.1801454589844,-0.0814028564453125
2.00025529945293,-0.330399829101562,10.2232410888672,-0.0383072265625
2.00887296394946,-0.320823022460937,10.1945106689453,-0.0430956298828125
2.0174920957854,-0.296881005859375,10.2471831054687,-0.086191259765625
2.02611122762134,-0.263362182617187,10.2184526855469,-0.09576806640625
2.03473035945728,-0.225054956054687,10.2471831054687,-0.181959326171875
2.04335101397117,-0.177170922851562,10.3046439453125,-0.17238251953125
2.05197166848506,-0.158017309570312,10.3142207519531,-0.138863696289063
2.06059232299895,-0.09576806640625,10.3046439453125,-0.13407529296875
2.07352836146466,-0.0909796630859375,10.4387192382812,-0.1915361328125
2.08646439993038,-0.09576806640625,10.4722380615234,-0.167594116210937
2.0994004383961,-0.0526724365234375,10.5105452880859,-0.215478149414062
2.14704886469278,-0.0526724365234375,10.3237975585937,0.162805712890625
2.19469729098947,-0.110133276367187,10.3094323486328,0.225054956054687
2.24234571728616,-0.09576806640625,10.2280294921875,0.3064578125
2.25103828097973,-0.100556469726563,10.2280294921875,0.244208569335937
2.25973084467331,-0.119710083007812,10.2040874755859,0.1915361328125
2.26842340836689,-0.119710083007812,10.1945106689453,0.13407529296875
2.27711782351446,-0.124498486328125,10.1705686523437,0.119710083007812
2.28581223866203,-0.0909796630859375,10.0891657958984,0.0622492431640625
2.29450665380961,-0.086191259765625,10.1322614257812,0.028730419921875
2.3032025832801,-0.09576806640625,10.0652237792969,-0.028730419921875
2.31189851275059,-0.0622492431640625,10.0412817626953,-0.0143652099609375
2.32059444222108,-0.01915361328125,10.0556469726563,-0.0335188232421875
2.32929271793723,0.01915361328125,10.0077629394531,-0.047884033203125
2.33799099365338,-0.009576806640625,9.94072529296875,-0.086191259765625
2.34668926936953,0.0383072265625,9.96945571289062,-0.067037646484375
2.35545757384003,0.0143652099609375,9.9215716796875,-0.138863696289063
2.36422587831052,0.0047884033203125,9.91199487304687,-0.158017309570312
2.37299418278101,-0.009576806640625,9.89284125976562,-0.162805712890625
2.38176494612737,0.0239420166015625,9.88805285644531,-0.215478149414062
2.39053570947373,0.0526724365234375,9.82101520996094,-0.17238251953125
2.39930647282009,0.0383072265625,9.85453403320312,-0.181959326171875
2.40807920947374,-0.0047884033203125,9.87847604980469,-0.162805712890625
2.41685194612739,0.0335188232421875,9.86411083984375,-0.229843359375
2.42562468278103,0.0814028564453125,9.89762966308594,-0.282515795898438
2.434398940051,0.067037646484375,9.86411083984375,-0.258573779296875
2.44317319732097,0.0622492431640625,9.85932243652344,-0.258573779296875
2.45194745459094,0.0526724365234375,9.883264453125,-0.292092602539062
2.4607231586925,0.076614453125,9.89762966308594,-0.2681505859375
2.46949886279407,0.1149216796875,9.85453403320312,-0.258573779296875
2.47827456689564,0.0909796630859375,9.78749638671875,-0.220266552734375
2.48712135129234,0.105344873046875,9.85453403320312,-0.229843359375
2.49596813568904,0.119710083007812,9.82101520996094,-0.272938989257812
2.50481492008575,0.158017309570312,9.81622680664062,-0.296881005859375
2.513666962946,0.129286889648437,9.78749638671875,-0.2681505859375
2.52251900580625,0.143652099609375,9.78270798339844,-0.32561142578125
2.5313710486665,0.158017309570312,9.81622680664062,-0.263362182617187
2.54022573193474,0.148440502929687,9.81143840332031,-0.330399829101562
2.54908041520297,0.138863696289063,9.83538041992187,-0.301669409179687
2.55793509847121,0.158017309570312,9.81622680664062,-0.32561142578125
2.5667913279634,0.143652099609375,9.81143840332031,-0.263362182617187
2.57564755745559,0.13407529296875,9.80186159667969,-0.272938989257812
2.58450378694778,0.15322890625,9.84974562988281,-0.263362182617187
2.59336166650507,0.13407529296875,9.80665,-0.244208569335937
2.60221954606237,0.143652099609375,9.86411083984375,-0.220266552734375
2.61107742561967,0.177170922851562,9.88805285644531,-0.186747729492187
2.62000112006411,0.1915361328125,9.87368764648437,-0.177170922851562
2.62892481450856,0.177170922851562,9.85453403320312,-0.2681505859375
2.637848508953,0.162805712890625,9.883264453125,-0.229843359375
2.64677564664832,0.15322890625,9.91678327636719,-0.277727392578125
2.65570278434364,0.143652099609375,9.93114848632812,-0.215478149414062
2.66462992203896,0.124498486328125,9.95509050292969,-0.24899697265625
2.67363299170042,0.100556469726563,9.9981861328125,-0.3447650390625
2.68263606136189,0.124498486328125,9.9981861328125,-0.239420166015625
2.69163913102335,0.0909796630859375,10.036493359375,-0.239420166015625
2.70064506288099,0.0718260498046875,10.0508585693359,-0.258573779296875
2.70965099473864,0.076614453125,10.0604353759766,-0.234631762695312
2.71865692659628,0.0909796630859375,10.0939541992188,-0.234631762695312
2.72766444200427,0.09576806640625,10.0939541992188,-0.229843359375
2.73667195741226,0.047884033203125,10.0795889892578,-0.229843359375
2.74567947282026,0.01915361328125,10.0460701660156,-0.158017309570312
2.75468852002078,0.0383072265625,10.0652237792969,-0.181959326171875
2.7636975672213,0.0239420166015625,10.0652237792969,-0.177170922851562
2.77270661442182,0.01915361328125,10.0939541992188,-0.215478149414062
2.78171714458675,-0.028730419921875,10.0221281494141,-0.158017309570312
2.79072767475169,-0.0383072265625,10.036493359375,-0.148440502929687
2.79973820491662,-0.0526724365234375,9.96945571289062,-0.177170922851562
2.80881904703902,-0.0622492431640625,9.98382092285156,-0.148440502929687
2.81789988916141,-0.076614453125,9.95030209960937,-0.124498486328125
2.82698073128381,-0.0814028564453125,9.94072529296875,-0.105344873046875
2.83606386865361,-0.143652099609375,9.93114848632812,-0.100556469726563
2.84514700602341,-0.124498486328125,9.92636008300781,-0.13407529296875
2.85423014339321,-0.129286889648437,9.97424411621094,-0.110133276367187
2.86785919433723,-0.177170922851562,9.95030209960937,-0.339976635742188
2.88148824528125,-0.1915361328125,9.95987890625,-0.32561142578125
2.89511729622527,-0.196324536132812,9.98382092285156,-0.330399829101562
2.90420635818273,-0.158017309570312,10.0173397460938,-0.36391865234375
2.9132954201402,-0.158017309570312,9.96945571289062,-0.407014282226562
2.92238448209767,-0.177170922851562,10.0029745361328,-0.292092602539062
2.93147553309594,-0.181959326171875,10.0317049560547,-0.359130249023437
2.94056658409421,-0.138863696289063,10.0317049560547,-0.359130249023437
2.94965763509248,-0.215478149414062,10.036493359375,-0.316034619140625
2.95875020431991,-0.15322890625,10.0125513427734,-0.277727392578125
2.96784277354734,-0.124498486328125,10.036493359375,-0.282515795898438
2.97693534277477,-0.100556469726563,10.0652237792969,-0.21068974609375
2.98602943652476,-0.138863696289063,10.0221281494141,-0.28730419921875
2.99512353027476,-0.1149216796875,10.0460701660156,-0.292092602539062
3.00421762402476,-0.086191259765625,10.0652237792969,-0.24899697265625
3.0133772355699,-0.1149216796875,10.0460701660156,-0.162805712890625
3.02253684711504,-0.0909796630859375,10.0412817626953,-0.162805712890625
3.03169645866018,-0.129286889648437,10.0317049560547,-0.196324536132812
3.04085897395966,-0.13407529296875,10.0269165527344,-0.186747729492187
3.05002148925915,-0.110133276367187,10.0843773925781,-0.186747729492187
3.05918400455863,-0.119710083007812,10.0460701660156,-0.167594116210937
3.06834822710637,-0.143652099609375,10.0604353759766,-0.17238251953125
3.07751244965412,-0.181959326171875,10.0652237792969,-0.17238251953125
3.08667667220186,-0.162805712890625,10.0748005859375,-0.124498486328125
3.09243419536809,-0.196324536132812,10.0843773925781,-0.0622492431640625
3.09819171853433,-0.1915361328125,10.0843773925781,-0.0909796630859375
3.10394924170056,-0.239420166015625,10.0891657958984,-0.158017309570312
3.10629451513807,-0.21068974609375,10.0508585693359,-0.05746083984375
3.10863978857558,-0.239420166015625,10.0891657958984,-0.119710083007812
3.11098506201309,-0.239420166015625,10.0700121826172,-0.119710083007812
3.11339437570666,-0.277727392578125,10.0843773925781,-0.177170922851562
3.11580368940023,-0.258573779296875,10.0652237792969,-0.162805712890625
3.1182130030938,-0.253785375976562,10.0795889892578,-0.143652099609375
3.12062323931342,-0.277727392578125,10.0604353759766,-0.186747729492187
3.12303347553303,-0.311246215820312,10.1035310058594,-0.148440502929687
3.12544371175265,-0.28730419921875,10.0891657958984,-0.15322890625
3.12785498963894,-0.301669409179687,10.0556469726563,-0.17238251953125
3.13026626752522,-0.277727392578125,10.0652237792969,-0.17238251953125
3.13267754541151,-0.28730419921875,10.0460701660156,-0.167594116210937
3.13503088026394,-0.296881005859375,10.1035310058594,-0.138863696289063
3.13738421511636,-0.277727392578125,10.0748005859375,-0.205901342773437
3.13973754996879,-0.316034619140625,10.0556469726563,-0.220266552734375
3.14208744287243,-0.349553442382812,10.0460701660156,-0.196324536132812
3.14443733577607,-0.316034619140625,10.0795889892578,-0.225054956054687
3.14678722867971,-0.316034619140625,10.0317049560547,-0.21068974609375
3.14935636927759,-0.311246215820312,9.9981861328125,-0.215478149414062
3.15192550987547,-0.316034619140625,10.0317049560547,-0.17238251953125
3.15449465047335,-0.339976635742188,9.99339772949219,-0.24899697265625
3.15706734220512,-0.320823022460937,10.0221281494141,-0.158017309570312
3.1596400339369,-0.32561142578125,9.99339772949219,-0.186747729492187
3.16221272566867,-0.3447650390625,9.95987890625,-0.196324536132812
3.16471269463568,-0.316034619140625,10.0077629394531,-0.162805712890625
3.1672126636027,-0.32561142578125,9.96466730957031,-0.13407529296875
3.16971263256971,-0.359130249023437,9.96945571289062,-0.215478149414062
3.17221157799071,-0.354341845703125,9.94551369628906,-0.3064578125
3.17471052341172,-0.3447650390625,9.97903251953125,-0.40222587890625
3.17720946883272,-0.349553442382812,9.95509050292969,-0.368707055664062
3.17970691924505,-0.335188232421875,9.97903251953125,-0.392649072265625
3.18220436965738,-0.368707055664062,10.0029745361328,-0.416591088867187
3.18470182006971,-0.330399829101562,9.9981861328125,-0.464475122070312
3.18719869420166,-0.378283862304687,9.98382092285156,-0.47884033203125
3.18969556833361,-0.373495458984375,10.0125513427734,-0.464475122070312
3.19219244246556,-0.368707055664062,10.0029745361328,-0.454898315429687
3.19468748586834,-0.349553442382812,10.0173397460938,-0.483628735351562
3.19718252927112,-0.32561142578125,10.0221281494141,-0.502782348632812
3.1996775726739,-0.349553442382812,9.99339772949219,-0.507570751953125
3.21191548120254,-0.205901342773437,10.0125513427734,-0.430956298828125
3.22415338973118,-0.17238251953125,10.0077629394531,-0.435744702148437
3.23639129825982,-0.205901342773437,9.96466730957031,-0.469263525390625
3.24333755075548,-0.162805712890625,10.0748005859375,-0.545877978515625
3.25028380325114,-0.15322890625,10.0891657958984,-0.507570751953125
3.2572300557468,-0.17238251953125,10.1035310058594,-0.502782348632812
3.25956769995253,-0.158017309570312,10.1514150390625,-0.5746083984375
3.26190534415826,-0.162805712890625,10.0939541992188,-0.493205541992187
3.26424298836399,-0.158017309570312,10.0795889892578,-0.502782348632812
3.26658116219212,-0.181959326171875,10.0556469726563,-0.507570751953125
3.26891933602025,-0.177170922851562,10.0652237792969,-0.507570751953125
3.27125750984838,-0.138863696289063,10.0412817626953,-0.550666381835937
3.27359538181018,-0.143652099609375,10.0748005859375,-0.565031591796875
3.27593325377198,-0.143652099609375,10.0269165527344,-0.488417138671875
3.27827112573378,-0.119710083007812,10.0700121826172,-0.512359155273437
3.28060918194037,-0.110133276367187,10.0077629394531,-0.507570751953125
3.28294723814696,-0.105344873046875,9.99339772949219,-0.483628735351562
3.28528529435356,-0.067037646484375,9.98382092285156,-0.507570751953125
3.28767956976226,-0.0814028564453125,9.98382092285156,-0.45968671875
3.29007384517097,-0.0143652099609375,9.94551369628906,-0.435744702148437
3.29246812057968,-0.076614453125,9.95509050292969,-0.4213794921875
3.29485351735943,-0.0526724365234375,9.96945571289062,-0.4213794921875
3.29723891413919,-0.0718260498046875,9.96945571289062,-0.454898315429687
3.29962431091894,-0.0239420166015625,9.9981861328125,-0.387860668945312
3.30199956366175,-0.0526724365234375,9.95987890625,-0.40222587890625
3.30437481640456,-0.0526724365234375,9.98382092285156,-0.40222587890625
3.30675006914736,-0.0526724365234375,9.98382092285156,-0.426167895507812
3.30911709169872,-0.05746083984375,9.92636008300781,-0.40222587890625
3.31148411425008,-0.009576806640625,9.97424411621094,-0.407014282226562
3.31385113680143,-0.0335188232421875,9.97424411621094,-0.354341845703125
3.31621140557313,0.0,9.97903251953125,-0.387860668945312
3.31857167434482,-0.0430956298828125,9.95509050292969,-0.32561142578125
3.32093194311652,-0.047884033203125,9.96945571289062,-0.383072265625
3.32319793671461,-0.0622492431640625,10.0125513427734,-0.40222587890625
3.32546393031269,-0.01915361328125,10.0125513427734,-0.316034619140625
3.32772992391078,-0.0718260498046875,9.99339772949219,-0.330399829101562
3.3299957914238,-0.0909796630859375,9.98860932617187,-0.263362182617187
3.33226165893682,-0.0430956298828125,10.0412817626953,-0.3447650390625
3.33452752644983,-0.0383072265625,10.0269165527344,-0.263362182617187
3.33694599194462,-0.0622492431640625,9.99339772949219,-0.239420166015625
3.33936445743941,-0.0622492431640625,10.0077629394531,-0.32561142578125
3.3417829229342,-0.0335188232421875,10.0125513427734,-0.320823022460937
3.34420131464427,-0.0430956298828125,9.99339772949219,-0.263362182617187
3.34661970635434,-0.0622492431640625,10.0077629394531,-0.186747729492187
3.34903809806441,-0.05746083984375,9.98860932617187,-0.205901342773437
3.35145690611562,-0.0526724365234375,9.95509050292969,-0.244208569335937
3.35387571416684,-0.0047884033203125,9.95509050292969,-0.2681505859375
3.35629452221805,-0.05746083984375,9.93114848632812,-0.24899697265625
3.35871347458351,-0.047884033203125,9.95509050292969,-0.296881005859375
3.36113242694896,-0.0143652099609375,9.95509050292969,-0.335188232421875
3.36355137931442,-0.067037646484375,9.98382092285156,-0.277727392578125
3.36597036477449,-0.0622492431640625,9.98382092285156,-0.330399829101562
3.36838935023456,-0.100556469726563,9.99339772949219,-0.320823022460937
3.37080833569463,-0.100556469726563,9.99339772949219,-0.330399829101562
3.37318695955531,-0.0526724365234375,9.96945571289062,-0.359130249023437
3.37556558341599,-0.0814028564453125,9.97903251953125,-0.373495458984375
3.37794420727667,-0.100556469726563,9.96945571289062,-0.359130249023437
3.38026849628492,-0.110133276367187,9.95987890625,-0.339976635742188
3.38259278529316,-0.158017309570312,9.94551369628906,-0.411802685546875
3.38491707430141,-0.119710083007812,9.94551369628906,-0.407014282226562
3.39394945955531,-0.13407529296875,9.883264453125,-0.28730419921875
3.40298184480921,-0.143652099609375,9.883264453125,-0.277727392578125
3.41201423006311,-0.162805712890625,9.883264453125,-0.244208569335937
3.41427202422544,-0.15322890625,9.91199487304687,-0.239420166015625
3.41652981838777,-0.129286889648437,9.87847604980469,-0.311246215820312
3.4187876125501,-0.129286889648437,9.89762966308594,-0.316034619140625
3.4210460789672,-0.129286889648437,9.90241806640625,-0.277727392578125
3.4233045453843,-0.110133276367187,9.88805285644531,-0.32561142578125
3.42556301180141,-0.100556469726563,9.89762966308594,-0.296881005859375
3.42782164108744,-0.148440502929687,9.87847604980469,-0.253785375976562
3.43008027037347,-0.105344873046875,9.91199487304687,-0.311246215820312
3.43233889965951,-0.0718260498046875,9.90241806640625,-0.2681505859375
3.43459749747852,-0.110133276367187,9.91199487304687,-0.263362182617187
3.43685609529754,-0.105344873046875,9.89284125976562,-0.320823022460937
3.43911469311656,-0.09576806640625,9.89762966308594,-0.292092602539062
3.44143504822362,-0.0526724365234375,9.88805285644531,-0.316034619140625
3.44375540333067,-0.0526724365234375,9.85932243652344,-0.229843359375
3.44607575843773,-0.0718260498046875,9.89284125976562,-0.320823022460937
3.44838819792702,-0.0909796630859375,9.88805285644531,-0.32561142578125
3.45070063741632,-0.067037646484375,9.87847604980469,-0.21068974609375
3.45301307690561,-0.0718260498046875,9.8449572265625,-0.3064578125
3.45531405477019,-0.0909796630859375,9.88805285644531,-0.244208569335937
3.45761503263477,-0.0383072265625,9.88805285644531,-0.316034619140625
3.45991601049936,-0.0814028564453125,9.883264453125,-0.359130249023437
3.46221023149184,-0.0718260498046875,9.9215716796875,-0.296881005859375
3.46450445248432,-0.0430956298828125,9.89762966308594,-0.292092602539062
3.46679867347681,-0.0526724365234375,9.89284125976562,-0.378283862304687
3.46908309690708,-0.105344873046875,9.87847604980469,-0.359130249023437
3.47136752033734,-0.076614453125,9.91199487304687,-0.316034619140625
3.47365194376761,-0.1149216796875,9.91678327636719,-0.349553442382812
3.47599414417994,-0.067037646484375,9.9215716796875,-0.36391865234375
3.47833634459226,-0.110133276367187,9.90241806640625,-0.383072265625
3.48067854500459,-0.1149216796875,9.93114848632812,-0.407014282226562
3.4830204937893,-0.158017309570312,9.95509050292969,-0.397437475585937
3.48536244257402,-0.105344873046875,9.96945571289062,-0.411802685546875
3.48770439135874,-0.086191259765625,9.9981861328125,-0.474051928710937
3.49004628556447,-0.129286889648437,9.97903251953125,-0.493205541992187
3.4923881797702,-0.110133276367187,9.93593688964844,-0.464475122070312
3.49473007397594,-0.15322890625,9.97903251953125,-0.454898315429687
3.49707141181231,-0.138863696289063,9.98860932617187,-0.4213794921875
3.49941274964869,-0.162805712890625,10.0077629394531,-0.47884033203125
3.50175408748506,-0.167594116210937,10.0173397460938,-0.521935961914062
3.50406233054062,-0.143652099609375,10.0125513427734,-0.445321508789062
3.50637057359617,-0.129286889648437,10.0221281494141,-0.512359155273437
3.50867881665173,-0.0909796630859375,10.0125513427734,-0.464475122070312
3.51102154630668,-0.167594116210937,10.0508585693359,-0.483628735351562
3.51336427596162,-0.138863696289063,10.0317049560547,-0.47884033203125
3.51570700561657,-0.15322890625,10.036493359375,-0.502782348632812
3.51805003719209,-0.162805712890625,10.0748005859375,-0.469263525390625
3.52039306876762,-0.15322890625,10.0843773925781,-0.464475122070312
3.52273610034315,-0.15322890625,10.0843773925781,-0.483628735351562
3.52507908998073,-0.105344873046875,10.0460701660156,-0.483628735351562
3.52742207961832,-0.143652099609375,10.1035310058594,-0.45968671875
3.52976506925591,-0.15322890625,10.0652237792969,-0.51714755859375
3.53218169691432,-0.119710083007812,10.0652237792969,-0.521935961914062
3.53459832457274,-0.129286889648437,10.1035310058594,-0.531512768554687
3.53701495223115,-0.124498486328125,10.0556469726563,-0.541089575195312
3.53935866360268,-0.129286889648437,10.0843773925781,-0.545877978515625
3.5417023749742,-0.119710083007812,10.0652237792969,-0.502782348632812
3.54404608634572,-0.0909796630859375,10.0987426025391,-0.507570751953125
3.54631451326629,-0.1149216796875,10.1226846191406,-0.483628735351562
3.54858294018686,-0.105344873046875,10.0652237792969,-0.512359155273437
3.55085136710743,-0.124498486328125,10.0939541992188,-0.454898315429687
3.55311848098547,-0.09576806640625,10.0795889892578,-0.493205541992187
3.55538559486351,-0.09576806640625,10.1322614257812,-0.536301171875
3.55765270874155,-0.1149216796875,10.1178962158203,-0.416591088867187
3.55984556138912,-0.124498486328125,10.0939541992188,-0.4213794921875
3.56203841403669,-0.105344873046875,10.1178962158203,-0.450109912109375
3.56423126668425,-0.105344873046875,10.1035310058594,-0.4213794921875
3.56631203220075,-0.09576806640625,10.1178962158203,-0.464475122070312
3.56839279771724,-0.076614453125,10.1083194091797,-0.36391865234375
3.57047356323374,-0.13407529296875,10.1035310058594,-0.392649072265625
3.57251489591604,-0.067037646484375,10.0317049560547,-0.40222587890625
3.57455622859833,-0.110133276367187,10.036493359375,-0.378283862304687
3.57659756128063,-0.1149216796875,10.0556469726563,-0.368707055664062
3.57973902927651,-0.100556469726563,10.0556469726563,-0.454898315429687
3.58288049727239,-0.124498486328125,10.0604353759766,-0.40222587890625
3.58602196526828,-0.100556469726563,10.0604353759766,-0.359130249023437
3.58813208725179,-0.167594116210937,10.0604353759766,-0.4213794921875
3.59024220923531,-0.15322890625,10.0604353759766,-0.40222587890625
3.59235233121882,-0.110133276367187,10.0508585693359,-0.4213794921875
3.59446470806344,-0.17238251953125,10.0700121826172,-0.392649072265625
3.59657708490806,-0.1149216796875,10.036493359375,-0.45968671875
3.59868946175268,-0.158017309570312,10.0269165527344,-0.44053310546875
3.60094717008603,-0.158017309570312,10.0508585693359,-0.407014282226562
3.60320487841937,-0.143652099609375,10.0748005859375,-0.474051928710937
3.60546258675271,-0.21068974609375,10.0652237792969,-0.51714755859375
3.60772199517285,-0.186747729492187,10.0221281494141,-0.469263525390625
3.609981403593,-0.201112939453125,10.0508585693359,-0.45968671875
3.61224081201314,-0.167594116210937,10.0269165527344,-0.51714755859375
3.61443306526834,-0.239420166015625,10.0939541992188,-0.469263525390625
3.61662531852355,-0.196324536132812,10.0412817626953,-0.483628735351562
3.61881757177875,-0.17238251953125,10.0173397460938,-0.474051928710937
3.62101084152701,-0.220266552734375,10.0125513427734,-0.469263525390625
3.62320411127528,-0.239420166015625,10.0221281494141,-0.373495458984375
3.62539738102354,-0.205901342773437,10.0269165527344,-0.4213794921875
3.62759177848448,-0.229843359375,9.98382092285156,-0.45968671875
3.62978617594542,-0.253785375976562,9.99339772949219,-0.483628735351562
3.63198057340636,-0.229843359375,10.0221281494141,-0.483628735351562
3.63417710454785,-0.186747729492187,10.0221281494141,-0.349553442382812
3.63637363568934,-0.21068974609375,10.0269165527344,-0.407014282226562
3.63857016683083,-0.244208569335937,9.9981861328125,-0.373495458984375
3.64076767713899,-0.2681505859375,9.98382092285156,-0.392649072265625
3.64296518744715,-0.225054956054687,9.9981861328125,-0.359130249023437
3.64516269775531,-0.220266552734375,10.0077629394531,-0.450109912109375
3.65299564591614,-0.177170922851562,9.91678327636719,-0.253785375976562
3.66082859407697,-0.162805712890625,9.95987890625,-0.330399829101562
3.66866154223779,-0.17238251953125,9.93114848632812,-0.282515795898438
3.67088827037364,-0.13407529296875,9.92636008300781,-0.3064578125
3.6731149985095,-0.162805712890625,9.95987890625,-0.330399829101562
3.67534172664535,-0.148440502929687,9.95509050292969,-0.282515795898438
3.67745735452079,-0.196324536132812,9.95987890625,-0.272938989257812
3.67957298239622,-0.177170922851562,9.94072529296875,-0.316034619140625
3.68168861027166,-0.167594116210937,9.97903251953125,-0.320823022460937
3.68372694572087,-0.177170922851562,9.97903251953125,-0.229843359375
3.68576528117008,-0.234631762695312,9.95987890625,-0.296881005859375
3.6878036166193,-0.148440502929687,9.96945571289062,-0.335188232421875
3.68984175854638,-0.181959326171875,9.95030209960937,-0.335188232421875
3.69187990047345,-0.181959326171875,9.95509050292969,-0.28730419921875
3.69391804240053,-0.186747729492187,9.93114848632812,-0.301669409179687
3.69602243465313,-0.162805712890625,9.96466730957031,-0.32561142578125
3.69812682690573,-0.17238251953125,9.95509050292969,-0.311246215820312
3.70023121915833,-0.1915361328125,9.91199487304687,-0.378283862304687
3.70233752194696,-0.215478149414062,9.94072529296875,-0.282515795898438
3.70444382473559,-0.21068974609375,9.95509050292969,-0.339976635742188
3.70655012752422,-0.225054956054687,9.91199487304687,-0.387860668945312
3.70865664743525,-0.1915361328125,9.95509050292969,-0.272938989257812
3.71076316734627,-0.244208569335937,9.94551369628906,-0.225054956054687
3.7128696872573,-0.196324536132812,9.96466730957031,-0.277727392578125
3.71497606784542,-0.225054956054687,9.93593688964844,-0.28730419921875
3.71708244843353,-0.21068974609375,9.94551369628906,-0.301669409179687
3.71918882902164,-0.205901342773437,9.93593688964844,-0.253785375976562
3.72129367971608,-0.234631762695312,9.94072529296875,-0.296881005859375
3.72339853041052,-0.234631762695312,9.93593688964844,-0.253785375976562
3.72550338110496,-0.244208569335937,9.93114848632812,-0.28730419921875
3.72766866523582,-0.2681505859375,9.96945571289062,-0.272938989257812
3.72983394936668,-0.220266552734375,9.94072529296875,-0.244208569335937
3.73199923349754,-0.215478149414062,9.98382092285156,-0.296881005859375
3.73415691068395,-0.234631762695312,9.96945571289062,-0.311246215820312
3.73631458787037,-0.244208569335937,9.97903251953125,-0.258573779296875
3.73847226505678,-0.24899697265625,9.97424411621094,-0.24899697265625
3.74061867926576,-0.229843359375,9.96945571289062,-0.301669409179687
3.74276509347473,-0.258573779296875,9.97424411621094,-0.263362182617187
3.74491150768371,-0.234631762695312,9.96945571289062,-0.2681505859375
3.74704636996127,-0.234631762695312,9.96466730957031,-0.301669409179687
3.74918123223882,-0.205901342773437,9.95987890625,-0.3447650390625
3.75131609451638,-0.234631762695312,10.0221281494141,-0.32561142578125
3.75344099622536,-0.167594116210937,9.95987890625,-0.36391865234375
3.75556589793434,-0.205901342773437,9.94072529296875,-0.320823022460937
3.75769079964333,-0.201112939453125,9.95030209960937,-0.335188232421875
3.75987720372319,-0.215478149414062,9.95987890625,-0.3064578125
3.76206360780306,-0.167594116210937,9.95030209960937,-0.32561142578125
3.76425001188292,-0.167594116210937,9.98382092285156,-0.354341845703125
3.76643866688509,-0.162805712890625,9.96945571289062,-0.411802685546875
3.76862732188727,-0.177170922851562,9.9981861328125,-0.383072265625
3.77081597688944,-0.1915361328125,9.9981861328125,-0.36391865234375
3.77300673991027,-0.162805712890625,9.98382092285156,-0.397437475585937
3.77519750293111,-0.119710083007812,9.97424411621094,-0.368707055664062
3.77738826595194,-0.0909796630859375,9.9981861328125,-0.407014282226562
3.77958076209994,-0.138863696289063,10.0173397460938,-0.445321508789062
3.78177325824794,-0.110133276367187,9.98860932617187,-0.450109912109375
3.78396575439594,-0.119710083007812,9.98382092285156,-0.4213794921875
3.78612472580435,-0.110133276367187,10.0029745361328,-0.483628735351562
3.78828369721277,-0.0622492431640625,9.96466730957031,-0.454898315429687
3.79044266862118,-0.0526724365234375,10.0269165527344,-0.47884033203125
3.79262835964766,-0.076614453125,10.0029745361328,-0.445321508789062
3.79481405067413,-0.0335188232421875,10.0125513427734,-0.488417138671875
3.7969997417006,-0.0047884033203125,10.0125513427734,-0.450109912109375
3.79918611995582,-0.0047884033203125,10.0173397460938,-0.521935961914062
3.80137249821103,-0.009576806640625,10.0652237792969,-0.512359155273437
3.80355887646624,-0.01915361328125,10.0412817626953,-0.521935961914062
3.80574539371884,0.0239420166015625,10.0317049560547,-0.507570751953125
3.80793191097144,0.0,10.0556469726563,-0.488417138671875
3.81011842822404,0.0526724365234375,10.0556469726563,-0.526724365234375
3.81230501047231,0.0239420166015625,10.0700121826172,-0.541089575195312
3.81449159272057,0.0526724365234375,10.0412817626953,-0.488417138671875
3.81667817496883,0.0622492431640625,10.0843773925781,-0.531512768554687
3.81882995784643,0.0526724365234375,10.0604353759766,-0.502782348632812
3.82098174072403,0.100556469726563,10.0412817626953,-0.493205541992187
3.82313352360163,0.067037646484375,10.0652237792969,-0.502782348632812
3.82539615326742,0.124498486328125,10.0795889892578,-0.507570751953125
3.82765878293322,0.105344873046875,10.0939541992188,-0.483628735351562
3.82992141259902,0.105344873046875,10.0939541992188,-0.541089575195312
3.8321828357761,0.105344873046875,10.0843773925781,-0.502782348632812
3.83444425895319,0.1149216796875,10.0604353759766,-0.435744702148437
3.83670568213027,0.105344873046875,10.0748005859375,-0.435744702148437
3.83896670893149,0.138863696289063,10.0269165527344,-0.392649072265625
3.84122773573271,0.124498486328125,10.0700121826172,-0.445321508789062
3.84348876253392,0.143652099609375,10.0269165527344,-0.445321508789062
3.84574976540935,0.138863696289063,10.0125513427734,-0.445321508789062
3.84801076828478,0.177170922851562,10.0173397460938,-0.392649072265625
3.85027177116021,0.17238251953125,10.0221281494141,-0.36391865234375
3.8525005975491,0.143652099609375,10.0173397460938,-0.378283862304687
3.85472942393799,0.13407529296875,9.98382092285156,-0.407014282226562
3.85695825032688,0.181959326171875,9.97903251953125,-0.32561142578125
3.85915392258165,0.129286889648437,9.99339772949219,-0.373495458984375
3.86134959483643,0.143652099609375,9.97424411621094,-0.36391865234375
3.8635452670912,0.15322890625,9.94072529296875,-0.36391865234375
3.86570269097357,0.148440502929687,9.94072529296875,-0.450109912109375
3.86786011485595,0.143652099609375,9.9215716796875,-0.411802685546875
3.87001753873832,0.124498486328125,9.91199487304687,-0.392649072265625
3.87542808859726,0.158017309570312,9.83059201660156,-0.411802685546875
3.88083863845619,0.15322890625,9.85932243652344,-0.426167895507812
3.88624918831512,0.1915361328125,9.87847604980469,-0.416591088867187
3.88843543625349,0.239420166015625,9.83538041992187,-0.521935961914062
3.89062168419186,0.215478149414062,9.8449572265625,-0.392649072265625
3.89280793213022,0.225054956054687,9.87368764648437,-0.488417138671875
3.89499502490366,0.239420166015625,9.8449572265625,-0.512359155273437
3.8971821176771,0.234631762695312,9.89284125976562,-0.488417138671875
3.89936921045053,0.220266552734375,9.8449572265625,-0.493205541992187
3.90148752978647,0.244208569335937,9.87847604980469,-0.47884033203125
3.90360584912241,0.220266552734375,9.89762966308594,-0.474051928710937
3.90572416845835,0.167594116210937,9.87847604980469,-0.483628735351562
3.90784180940887,0.205901342773437,9.89762966308594,-0.531512768554687
3.90995945035939,0.239420166015625,9.90241806640625,-0.536301171875
3.91207709130991,0.225054956054687,9.87847604980469,-0.483628735351562
3.91425924924176,0.234631762695312,9.91199487304687,-0.435744702148437
3.91644140717361,0.272938989257812,9.90241806640625,-0.469263525390625
3.91862356510546,0.253785375976562,9.96945571289062,-0.541089575195312
3.92080824625781,0.3064578125,9.97903251953125,-0.47884033203125
3.92299292741015,0.296881005859375,9.95987890625,-0.47884033203125
3.92517760856249,0.28730419921875,9.99339772949219,-0.450109912109375
3.92736436078689,0.2681505859375,10.0317049560547,-0.44053310546875
3.92955111301128,0.28730419921875,10.0412817626953,-0.387860668945312
3.93173786523568,0.3064578125,10.0221281494141,-0.430956298828125
3.93392688769661,0.296881005859375,10.0412817626953,-0.411802685546875
3.93611591015755,0.277727392578125,10.0460701660156,-0.474051928710937
3.93830493261849,0.292092602539062,10.1035310058594,-0.426167895507812
3.94049490484072,0.2681505859375,10.036493359375,-0.373495458984375
3.94268487706294,0.292092602539062,10.0317049560547,-0.416591088867187
3.94487484928517,0.282515795898438,10.0460701660156,-0.435744702148437
3.94709469759247,0.258573779296875,10.0795889892578,-0.469263525390625
3.94931454589976,0.215478149414062,10.0700121826172,-0.430956298828125
3.95153439420706,0.225054956054687,10.0269165527344,-0.454898315429687
3.95372249962156,0.220266552734375,10.0077629394531,-0.450109912109375
3.95591060503606,0.21068974609375,10.0173397460938,-0.450109912109375
3.95809871045056,0.177170922851562,10.0412817626953,-0.407014282226562
3.96028664328476,0.177170922851562,10.0269165527344,-0.464475122070312
3.96247457611896,0.181959326171875,10.0269165527344,-0.454898315429687
3.96466250895317,0.13407529296875,10.0412817626953,-0.512359155273437
3.9668499226359,0.143652099609375,10.0125513427734,-0.51714755859375
3.96903733631863,0.138863696289063,9.98382092285156,-0.47884033203125
3.97122475000135,0.124498486328125,10.0077629394531,-0.474051928710937
3.97341148193495,0.086191259765625,9.93593688964844,-0.47884033203125
3.97559821386855,0.1149216796875,9.97903251953125,-0.4213794921875
3.97778494580214,0.0909796630859375,9.94551369628906,-0.44053310546875
3.98000590364719,0.047884033203125,9.95030209960937,-0.47884033203125
3.98222686149224,0.009576806640625,9.93593688964844,-0.488417138671875
3.98444781933729,0.0430956298828125,9.91678327636719,-0.411802685546875
3.98663427929823,0.0143652099609375,9.9215716796875,-0.435744702148437
3.98882073925917,0.0143652099609375,9.91678327636719,-0.44053310546875
3.99100719922011,-0.0143652099609375,9.88805285644531,-0.359130249023437
3.99319169515109,-0.05746083984375,9.8449572265625,-0.426167895507812
3.99537619108208,-0.0143652099609375,9.84016882324219,-0.373495458984375
3.99756068701306,-0.009576806640625,9.86889924316406,-0.36391865234375
3.99974415153129,-0.0143652099609375,9.86889924316406,-0.330399829101562
4.00192761604952,-0.0718260498046875,9.82580361328125,-0.320823022460937
4.00411108056775,-0.0622492431640625,9.84974562988281,-0.3447650390625
4.00629469520534,-0.0430956298828125,9.83059201660156,-0.330399829101562
4.00847830984292,-0.086191259765625,9.82101520996094,-0.263362182617187
4.0106619244805,-0.0718260498046875,9.85453403320312,-0.3064578125
4.01280523415932,-0.105344873046875,9.82101520996094,-0.24899697265625
4.01494854383814,-0.09576806640625,9.86889924316406,-0.244208569335937
4.01709185351696,-0.110133276367187,9.83059201660156,-0.1915361328125
4.01908759711505,-0.067037646484375,9.88805285644531,-0.24899697265625
4.02108334071313,-0.09576806640625,9.90720646972656,-0.205901342773437
4.02307908431122,-0.148440502929687,9.86411083984375,-0.1915361328125
4.0250364019653,-0.167594116210937,9.87368764648437,-0.158017309570312
4.02699371961938,-0.143652099609375,9.89284125976562,-0.167594116210937
4.02895103727346,-0.143652099609375,9.89762966308594,-0.177170922851562
4.03090768478865,-0.148440502929687,9.89762966308594,-0.201112939453125
4.03286433230385,-0.201112939453125,9.93114848632812,-0.17238251953125
4.03482097981905,-0.196324536132812,9.90720646972656,-0.186747729492187
4.03677726725394,-0.244208569335937,9.90720646972656,-0.220266552734375
4.03873355468884,-0.201112939453125,9.92636008300781,-0.24899697265625
4.04068984212374,-0.225054956054687,9.9215716796875,-0.196324536132812
4.04287061241454,-0.21068974609375,9.90241806640625,-0.272938989257812
4.04505138270533,-0.220266552734375,9.90720646972656,-0.301669409179687
4.04723215299613,-0.253785375976562,9.95987890625,-0.330399829101562
4.04941464257946,-0.258573779296875,9.95030209960937,-0.296881005859375
4.0515971321628,-0.244208569335937,9.92636008300781,-0.292092602539062
4.05377962174613,-0.225054956054687,9.91199487304687,-0.316034619140625
4.05596315323726,-0.253785375976562,9.90720646972656,-0.3064578125
4.05814668472838,-0.272938989257812,9.94551369628906,-0.316034619140625
4.06033021621951,-0.253785375976562,9.94072529296875,-0.359130249023437
4.06251517575848,-0.263362182617187,9.93593688964844,-0.335188232421875
4.06470013529745,-0.234631762695312,9.93593688964844,-0.392649072265625
4.06688509483642,-0.220266552734375,9.91678327636719,-0.320823022460937
4.06907342231038,-0.2681505859375,9.89762966308594,-0.339976635742188
4.07126174978433,-0.239420166015625,9.87847604980469,-0.349553442382812
4.07345007725829,-0.253785375976562,9.89762966308594,-0.416591088867187
4.07563961066637,-0.2681505859375,9.86411083984375,-0.397437475585937
4.07782914407445,-0.263362182617187,9.883264453125,-0.387860668945312
4.08001867748253,-0.296881005859375,9.88805285644531,-0.397437475585937
4.08220938080043,-0.316034619140625,9.90720646972656,-0.426167895507812
4.08440008411832,-0.272938989257812,9.91199487304687,-0.416591088867187
4.08659078743622,-0.272938989257812,9.91678327636719,-0.435744702148437
4.09749204172223,-0.229843359375,10.1178962158203,-0.55545478515625
4.10839329600824,-0.215478149414062,10.0891657958984,-0.584185205078125
4.11929455029424,-0.244208569335937,10.0556469726563,-0.608127221679687
4.12147577056334,-0.263362182617187,10.0748005859375,-0.507570751953125
4.12365699083244,-0.234631762695312,10.1226846191406,-0.560243188476563
4.12583821110154,-0.196324536132812,10.0700121826172,-0.55545478515625
4.12801939518358,-0.201112939453125,10.0125513427734,-0.526724365234375
4.13020057926561,-0.21068974609375,10.0508585693359,-0.565031591796875
4.13238176334765,-0.234631762695312,10.0700121826172,-0.51714755859375
4.1346027054592,-0.225054956054687,10.0269165527344,-0.507570751953125
4.13682364757075,-0.220266552734375,10.0795889892578,-0.507570751953125
4.1390445896823,-0.282515795898438,10.0317049560547,-0.4979939453125
4.14130908702388,-0.225054956054687,10.0652237792969,-0.47884033203125
4.14357358436546,-0.196324536132812,10.0556469726563,-0.430956298828125
4.14583808170704,-0.2681505859375,10.0556469726563,-0.44053310546875
4.14810419232987,-0.239420166015625,10.0412817626953,-0.387860668945312
4.1503703029527,-0.272938989257812,10.0317049560547,-0.40222587890625
4.15263641357554,-0.2681505859375,10.0173397460938,-0.407014282226562
4.15490298112112,-0.2681505859375,10.0652237792969,-0.45968671875
4.1571695486667,-0.263362182617187,10.0412817626953,-0.435744702148437
4.15943611621228,-0.253785375976562,10.0317049560547,-0.445321508789062
4.16176460449353,-0.225054956054687,10.0317049560547,-0.426167895507812
4.16409309277478,-0.225054956054687,9.97903251953125,-0.474051928710937
4.16642158105603,-0.215478149414062,10.0748005859375,-0.450109912109375
4.16879583317191,-0.24899697265625,10.0221281494141,-0.445321508789062
4.1711700852878,-0.244208569335937,10.0221281494141,-0.435744702148437
4.17354433740368,-0.21068974609375,10.0077629394531,-0.483628735351562
4.17604403635117,-0.225054956054687,10.0604353759766,-0.450109912109375
4.17854373529865,-0.234631762695312,10.036493359375,-0.445321508789062
4.18104343424613,-0.263362182617187,10.0269165527344,-0.445321508789062
4.1834681360148,-0.225054956054687,9.96466730957031,-0.445321508789062
4.18589283778347,-0.2681505859375,10.0221281494141,-0.435744702148437
4.18831753955214,-0.215478149414062,10.0173397460938,-0.416591088867187
4.19535328754478,-0.239420166015625,10.0077629394531,-0.44053310546875
4.20238903553741,-0.220266552734375,9.99339772949219,-0.488417138671875
4.20942478353004,-0.220266552734375,10.0556469726563,-0.44053310546875
4.2117687524428,-0.24899697265625,10.0269165527344,-0.464475122070312
4.21411272135556,-0.24899697265625,10.036493359375,-0.426167895507812
4.21645669026832,-0.253785375976562,10.0412817626953,-0.450109912109375
4.21880068413767,-0.205901342773437,10.0125513427734,-0.36391865234375
4.22114467800703,-0.244208569335937,10.0412817626953,-0.392649072265625
4.22348867187638,-0.258573779296875,10.0077629394531,-0.474051928710937
4.22817062459835,-0.1915361328125,10.0221281494141,-0.383072265625
4.23285257732032,-0.181959326171875,10.0317049560547,-0.3064578125
4.23753453004229,-0.15322890625,9.99339772949219,-0.3447650390625
4.24443835802776,-0.0622492431640625,10.0125513427734,-0.349553442382812
4.25134218601324,-0.0909796630859375,9.98860932617187,-0.354341845703125
4.25824601399871,-0.09576806640625,10.0029745361328,-0.359130249023437
4.27087560698916,0.047884033203125,9.91199487304687,-0.378283862304687
4.2835051999796,0.0383072265625,9.94551369628906,-0.445321508789062
4.29613479297004,0.047884033203125,9.93114848632812,-0.430956298828125
4.29840292990581,0.067037646484375,9.90241806640625,-0.411802685546875
4.30067106684157,0.0718260498046875,9.91199487304687,-0.454898315429687
4.30293920377733,0.076614453125,9.93114848632812,-0.359130249023437
4.30520769574783,0.076614453125,9.91199487304687,-0.435744702148437
4.30747618771832,0.0239420166015625,9.93593688964844,-0.445321508789062
4.30974467968881,0.067037646484375,9.90241806640625,-0.368707055664062
4.31200874012718,0.105344873046875,9.94551369628906,-0.45968671875
4.31427280056554,0.076614453125,9.93114848632812,-0.426167895507812
4.3165368610039,0.076614453125,9.93114848632812,-0.426167895507812
4.31879910861675,0.0718260498046875,9.94551369628906,-0.430956298828125
4.32106135622959,0.05746083984375,9.91678327636719,-0.407014282226562
4.32332360384243,0.05746083984375,9.93114848632812,-0.40222587890625
4.32574512424174,0.067037646484375,9.95030209960937,-0.4213794921875
4.32816664464105,0.0526724365234375,9.94072529296875,-0.411802685546875
4.33058816504036,0.01915361328125,9.88805285644531,-0.36391865234375
4.33300955002299,0.0526724365234375,9.91199487304687,-0.430956298828125
4.33543093500563,0.0383072265625,9.90720646972656,-0.378283862304687
4.33785231998827,0.0383072265625,9.89762966308594,-0.469263525390625
4.34027300933288,0.0335188232421875,9.87368764648437,-0.430956298828125
4.34269369867749,0.0622492431640625,9.86889924316406,-0.3447650390625
4.3451143880221,0.0430956298828125,9.84016882324219,-0.378283862304687
4.34753481065666,0.0526724365234375,9.85453403320312,-0.316034619140625
4.34995523329121,0.0239420166015625,9.85932243652344,-0.320823022460937
4.35237565592576,0.028730419921875,9.88805285644531,-0.349553442382812
4.35494432280944,0.0047884033203125,9.87368764648437,-0.36391865234375
4.35751298969312,-0.028730419921875,9.88805285644531,-0.387860668945312
4.3600816565768,-0.028730419921875,9.90241806640625,-0.373495458984375
4.36273827636847,-0.0335188232421875,9.89284125976562,-0.378283862304687
4.36539489616014,-0.0383072265625,9.883264453125,-0.378283862304687
4.36805151595181,-0.067037646484375,9.86889924316406,-0.330399829101562
4.37070876475823,-0.05746083984375,9.85453403320312,-0.354341845703125
4.37336601356465,-0.0383072265625,9.87368764648437,-0.445321508789062
4.37602326237107,-0.0239420166015625,9.91678327636719,-0.392649072265625
4.38899207682419,-0.105344873046875,9.87368764648437,-0.28730419921875
4.40196089127731,-0.067037646484375,9.86411083984375,-0.272938989257812
4.41492970573044,-0.09576806640625,9.88805285644531,-0.292092602539062
4.41750522200648,-0.105344873046875,9.87368764648437,-0.263362182617187
4.42008073828251,-0.0526724365234375,9.86411083984375,-0.229843359375
4.42265625455855,-0.110133276367187,9.94072529296875,-0.272938989257812
4.4252319944674,-0.047884033203125,9.91678327636719,-0.292092602539062
4.42780773437625,-0.09576806640625,9.90720646972656,-0.229843359375
4.4303834742851,-0.0909796630859375,9.92636008300781,-0.277727392578125
4.43296030523128,-0.119710083007812,9.92636008300781,-0.17238251953125
4.43553713617746,-0.076614453125,9.90720646972656,-0.320823022460937
4.43811396712363,-0.0814028564453125,9.88805285644531,-0.229843359375
4.44808436260431,-0.186747729492187,9.93593688964844,-0.311246215820312
4.458054758085,-0.21068974609375,9.96945571289062,-0.277727392578125
4.46802515356568,-0.220266552734375,9.96945571289062,-0.258573779296875
4.48116204665922,-0.359130249023437,10.0795889892578,-0.579396801757812
4.49429893975276,-0.3447650390625,10.1035310058594,-0.512359155273437
4.5074358328463,-0.36391865234375,10.1131078125,-0.512359155273437
4.50984791238189,-0.316034619140625,10.1370498291016,-0.55545478515625
4.51225999191747,-0.359130249023437,10.1035310058594,-0.45968671875
4.51467207145306,-0.378283862304687,10.1370498291016,-0.531512768554687
4.51706956600059,-0.349553442382812,10.1131078125,-0.474051928710937
4.51946706054811,-0.349553442382812,10.1322614257812,-0.502782348632812
4.52186455509564,-0.330399829101562,10.1083194091797,-0.541089575195312
4.52424195777396,-0.339976635742188,10.1035310058594,-0.545877978515625
4.52661936045227,-0.392649072265625,10.0987426025391,-0.565031591796875
4.52899676313059,-0.330399829101562,10.1274730224609,-0.536301171875
4.53135402402649,-0.387860668945312,10.1322614257812,-0.550666381835937
4.5337112849224,-0.3447650390625,10.1178962158203,-0.507570751953125
4.5360685458183,-0.349553442382812,10.1322614257812,-0.507570751953125
4.5384891738565,-0.320823022460937,10.1178962158203,-0.4979939453125
4.54090980189469,-0.378283862304687,10.1083194091797,-0.483628735351562
4.54333042993289,-0.301669409179687,10.0939541992188,-0.445321508789062
4.54575084708784,-0.296881005859375,10.0795889892578,-0.426167895507812
4.54817126424279,-0.335188232421875,10.0795889892578,-0.445321508789062
4.55059168139774,-0.32561142578125,10.0748005859375,-0.416591088867187
4.55301119409305,-0.32561142578125,10.0939541992188,-0.521935961914062
4.55543070678836,-0.316034619140625,10.0700121826172,-0.541089575195312
4.55785021948368,-0.28730419921875,10.0748005859375,-0.545877978515625
4.56026910555139,-0.311246215820312,10.0939541992188,-0.483628735351562
4.5626879916191,-0.339976635742188,10.0939541992188,-0.545877978515625
4.56510687768681,-0.277727392578125,10.1226846191406,-0.483628735351562
4.56749243855921,-0.311246215820312,10.0652237792969,-0.541089575195312
4.56987799943161,-0.32561142578125,10.036493359375,-0.512359155273437
4.57226356030402,-0.277727392578125,10.0652237792969,-0.464475122070312
4.57468821682528,-0.296881005859375,10.0508585693359,-0.469263525390625
4.57711287334655,-0.292092602539062,10.1083194091797,-0.474051928710937
4.57953752986781,-0.282515795898438,10.0700121826172,-0.526724365234375
4.58196375246981,-0.24899697265625,10.1083194091797,-0.454898315429687
4.5843899750718,-0.292092602539062,10.0795889892578,-0.469263525390625
4.58681619767379,-0.3064578125,10.0556469726563,-0.493205541992187
4.5892426721204,-0.253785375976562,10.0700121826172,-0.474051928710937
4.59166914656702,-0.282515795898438,10.0700121826172,-0.469263525390625
4.59409562101363,-0.28730419921875,10.0412817626953,-0.488417138671875
4.59652207175147,-0.272938989257812,10.0843773925781,-0.47884033203125
4.59894852248932,-0.301669409179687,10.1083194091797,-0.411802685546875
4.60137497322716,-0.229843359375,10.0652237792969,-0.47884033203125
4.60376705129791,-0.2681505859375,10.036493359375,-0.430956298828125
4.60615912936866,-0.292092602539062,10.0700121826172,-0.416591088867187
4.60855120743941,-0.301669409179687,10.0604353759766,-0.40222587890625
4.61096963728968,-0.277727392578125,10.0269165527344,-0.469263525390625
4.61338806713994,-0.277727392578125,10.0269165527344,-0.32561142578125
4.61580649699021,-0.292092602539062,10.0412817626953,-0.378283862304687
4.6182254600436,-0.330399829101562,10.0269165527344,-0.44053310546875
4.62064442309699,-0.277727392578125,10.036493359375,-0.407014282226562
4.62306338615038,-0.296881005859375,10.0221281494141,-0.368707055664062
4.62548383059483,-0.2681505859375,10.0029745361328,-0.411802685546875
4.62790427503927,-0.272938989257812,9.99339772949219,-0.40222587890625
4.63032471948372,-0.24899697265625,10.0269165527344,-0.383072265625
4.63274784828146,-0.196324536132812,10.0029745361328,-0.378283862304687
4.63517097707921,-0.220266552734375,9.96466730957031,-0.378283862304687
4.63759410587695,-0.196324536132812,10.0221281494141,-0.354341845703125
4.6402060903062,-0.177170922851562,9.96945571289062,-0.368707055664062
4.64281807473545,-0.181959326171875,9.97903251953125,-0.335188232421875
4.6454300591647,-0.177170922851562,9.97424411621094,-0.339976635742188
4.64800913593336,-0.148440502929687,10.0077629394531,-0.392649072265625
4.65058821270202,-0.076614453125,9.95509050292969,-0.349553442382812
4.65316728947068,-0.105344873046875,9.95509050292969,-0.40222587890625
4.65574401619594,-0.086191259765625,10.0173397460938,-0.387860668945312
4.65832074292119,-0.047884033203125,10.0173397460938,-0.373495458984375
4.66089746964645,-0.0526724365234375,10.0269165527344,-0.40222587890625
4.66347197431225,0.0047884033203125,10.0125513427734,-0.383072265625
4.66604647897804,-0.0047884033203125,10.0125513427734,-0.450109912109375
4.66862098364384,0.0526724365234375,10.0029745361328,-0.445321508789062
4.67119386949454,0.0718260498046875,9.98382092285156,-0.44053310546875
4.67376675534523,0.110133276367187,10.0173397460938,-0.4213794921875
4.67633964119593,0.0814028564453125,9.99339772949219,-0.45968671875
4.67888155759133,0.148440502929687,9.9981861328125,-0.45968671875
4.68142347398673,0.162805712890625,10.0221281494141,-0.483628735351562
4.68396539038213,0.205901342773437,10.0412817626953,-0.493205541992187
4.68647586580531,0.215478149414062,10.036493359375,-0.464475122070312
4.68898634122848,0.205901342773437,10.0221281494141,-0.383072265625
4.69149681665166,0.24899697265625,10.0173397460938,-0.40222587890625
4.70519402300473,0.383072265625,9.98860932617187,-0.3064578125
4.7188912293578,0.373495458984375,9.9981861328125,-0.277727392578125
4.73258843571087,0.387860668945312,9.98860932617187,-0.320823022460937
4.73501337114923,0.36391865234375,9.94072529296875,-0.282515795898438
4.73743830658759,0.3064578125,9.98860932617187,-0.301669409179687
4.73986324202595,0.335188232421875,9.95509050292969,-0.349553442382812
4.74228865793308,0.36391865234375,9.95987890625,-0.339976635742188
4.7447140738402,0.301669409179687,9.96466730957031,-0.239420166015625
4.74713948974732,0.311246215820312,9.98382092285156,-0.263362182617187
4.74956486181763,0.339976635742188,9.9215716796875,-0.282515795898438
4.75199023388794,0.32561142578125,9.9215716796875,-0.220266552734375
4.75441560595825,0.3447650390625,9.90241806640625,-0.21068974609375
4.75690641834975,0.378283862304687,9.86889924316406,-0.158017309570312
4.75939723074125,0.354341845703125,9.85932243652344,-0.239420166015625
4.76188804313275,0.335188232421875,9.84974562988281,-0.181959326171875
4.76438200493831,0.392649072265625,9.81622680664062,-0.162805712890625
4.76687596674386,0.354341845703125,9.87368764648437,-0.13407529296875
4.76936992854942,0.387860668945312,9.88805285644531,-0.196324536132812
4.77184154554703,0.4213794921875,9.85932243652344,-0.162805712890625
4.77431316254464,0.392649072265625,9.88805285644531,-0.158017309570312
4.77678477954225,0.383072265625,9.89284125976562,-0.21068974609375
4.77922829259021,0.44053310546875,9.90241806640625,-0.2681505859375
4.78167180563817,0.435744702148437,9.87368764648437,-0.229843359375
4.78411531868613,0.435744702148437,9.86889924316406,-0.201112939453125
4.78655081716703,0.464475122070312,9.87368764648437,-0.177170922851562
4.78898631564794,0.51714755859375,9.88805285644531,-0.181959326171875
4.79142181412885,0.526724365234375,9.90720646972656,-0.196324536132812
4.79391598887928,0.560243188476563,9.9215716796875,-0.177170922851562
4.79641016362971,0.560243188476563,9.95987890625,-0.143652099609375
4.79890433838015,0.63206923828125,9.89284125976562,-0.148440502929687
4.80139926801339,0.636857641601562,9.95030209960937,-0.148440502929687
4.80389419764663,0.608127221679687,9.93114848632812,-0.129286889648437
4.80638912727988,0.641646044921875,9.99339772949219,-0.201112939453125
4.80888410856243,0.699106884765625,9.98860932617187,-0.17238251953125
4.81137908984497,0.742202514648437,10.0221281494141,-0.181959326171875
4.81387407112752,0.78529814453125,10.0508585693359,-0.143652099609375
4.8163361895086,0.837970581054687,10.0556469726563,-0.177170922851562
4.81879830788968,0.837970581054687,10.0604353759766,-0.1915361328125
4.82126042627076,0.890643017578125,10.0604353759766,-0.1149216796875
4.8236881237534,0.9193734375,10.0843773925781,-0.13407529296875
4.82611582123604,0.995987890625,10.0748005859375,-0.148440502929687
4.82854351871868,0.943315454101562,10.0508585693359,-0.129286889648437
4.83103709141834,0.962469067382812,10.0508585693359,-0.0526724365234375
4.83353066411799,0.981622680664062,10.0460701660156,0.01915361328125
4.83602423681764,1.02471831054687,10.0125513427734,-0.0335188232421875
4.83851597499039,1.13485158691406,10.0891657958984,0.0909796630859375
4.84100771316313,1.08217915039062,10.0125513427734,0.047884033203125
4.84349945133588,1.15400520019531,10.0269165527344,0.0814028564453125
4.84598960150949,1.10612116699219,10.0317049560547,0.0383072265625
4.84847975168311,1.14442839355469,10.0700121826172,-0.028730419921875
4.85096990185672,1.17794721679687,10.0939541992188,0.0143652099609375
4.85342868641619,1.21625444335937,10.0987426025391,-0.0909796630859375
4.85588747097565,1.22104284667969,10.1035310058594,-0.100556469726563
4.85834625553512,1.24977326660156,10.1466266357422,-0.143652099609375
4.86077402517487,1.22104284667969,10.1178962158203,-0.277727392578125
4.86320179481462,1.21625444335937,10.1035310058594,-0.205901342773437
4.86562956445437,1.18273562011719,10.0939541992188,-0.196324536132812
4.86843804617095,1.20667763671875,10.0891657958984,-0.225054956054687
4.87124652788753,1.13006318359375,10.0891657958984,-0.225054956054687
4.87405500960411,1.149216796875,10.1226846191406,-0.220266552734375
4.87686396072174,1.18273562011719,10.0508585693359,-0.320823022460937
4.87967291183936,1.20667763671875,10.1178962158203,-0.44053310546875
4.88248186295699,1.13006318359375,10.0939541992188,-0.392649072265625
4.88529170941966,1.11569797363281,10.0843773925781,-0.373495458984375
4.88810155588233,1.15400520019531,10.0700121826172,-0.40222587890625
4.890911402345,1.15879360351562,10.0939541992188,-0.378283862304687
4.89368699631202,1.15400520019531,10.0508585693359,-0.359130249023437
4.89646259027904,1.14442839355469,10.0125513427734,-0.3447650390625
4.89923818424605,1.11569797363281,10.0460701660156,-0.354341845703125
4.90197927631419,1.12527478027344,10.036493359375,-0.292092602539062
4.90472036838233,1.07739074707031,10.0029745361328,-0.339976635742188
4.90746146045047,1.11569797363281,10.0077629394531,-0.359130249023437
4.91027161371653,1.07260234375,10.0269165527344,-0.316034619140625
4.9130817669826,1.07260234375,9.98860932617187,-0.320823022460937
4.91589192024866,1.05823713378906,9.99339772949219,-0.378283862304687
4.9187026433932,1.01035310058594,9.96466730957031,-0.311246215820312
4.92151336653773,1.01035310058594,9.9981861328125,-0.253785375976562
4.92432408968227,1.01992990722656,9.98860932617187,-0.277727392578125
4.95137763096916,0.63206923828125,10.1705686523437,-0.229843359375
4.97843117225604,0.612915625,10.2040874755859,-0.311246215820312
5.00548471354293,0.612915625,10.2519715087891,-0.335188232421875
5.00806120800907,0.622492431640625,10.2471831054687,-0.330399829101562
5.01063770247521,0.603338818359375,10.2854903320312,-0.282515795898438
5.01321419694136,0.617704028320312,10.2471831054687,-0.282515795898438
5.01579219232981,0.660799658203125,10.2471831054687,-0.263362182617187
5.01837018771827,0.679953271484375,10.2854903320312,-0.272938989257812
5.02094818310673,0.684741674804688,10.2519715087891,-0.24899697265625
5.02352633420266,0.665588061523437,10.2759135253906,-0.186747729492187
5.02610448529858,0.718260498046875,10.2423947021484,-0.100556469726563
5.0286826363945,0.751779321289062,10.3190091552734,-0.0239420166015625
5.03125798789069,0.737414111328125,10.3094323486328,-0.067037646484375
5.03383333938689,0.76614453125,10.2471831054687,0.01915361328125
5.03640869088308,0.78529814453125,10.2519715087891,-0.01915361328125
5.03897124176681,0.775721337890625,10.2615483154297,0.0047884033203125
5.04153379265055,0.742202514648437,10.2519715087891,0.0239420166015625
5.04409634353428,0.70868369140625,10.189722265625,0.0335188232421875
5.04664608913975,0.70868369140625,10.1226846191406,0.047884033203125
5.04919583474522,0.703895288085937,10.1083194091797,0.09576806640625
5.05174558035069,0.689530078125,10.0843773925781,0.196324536132812
5.05816564292303,0.699106884765625,10.0317049560547,0.32561142578125
5.06458570549537,0.818816967773437,9.94551369628906,0.426167895507812
5.07100576806771,0.86191259765625,9.87368764648437,0.502782348632812
5.07358568885764,0.8810662109375,9.7683427734375,0.44053310546875
5.07616560964757,0.842758984375,9.64384428710937,0.316034619140625
5.0787455304375,0.799663354492188,9.64384428710937,0.181959326171875
5.08132733805468,0.780509741210937,9.54807622070313,0.0909796630859375
5.08390914567186,0.770932934570312,9.60553706054687,0.0526724365234375
5.08649095328904,0.675164868164063,9.59117185058594,0.0047884033203125
5.08900405018574,0.684741674804688,9.6151138671875,0.129286889648437
5.09151714708244,0.6512228515625,9.6917283203125,0.162805712890625
5.09403024397913,0.560243188476563,9.73961235351562,0.067037646484375
5.09646678293312,0.502782348632812,9.83059201660156,0.067037646484375
5.09890332188711,0.450109912109375,9.90241806640625,0.0430956298828125
5.10133986084109,0.435744702148437,9.86411083984375,0.086191259765625
5.1039111593437,0.397437475585937,9.92636008300781,0.0526724365234375
5.1064824578463,0.36391865234375,9.9215716796875,0.119710083007812
5.1090537563489,0.320823022460937,9.98860932617187,0.129286889648437
5.11177846175254,0.292092602539062,9.92636008300781,0.143652099609375
5.11450316715617,0.311246215820312,9.93114848632812,0.158017309570312
5.11722787255981,0.330399829101562,9.94072529296875,0.177170922851562
5.11989057362318,0.335188232421875,9.98860932617187,0.1149216796875
5.12255327468655,0.3447650390625,9.98382092285156,0.0383072265625
5.12521597574992,0.335188232421875,10.0077629394531,-0.028730419921875
5.12780212299385,0.368707055664062,10.036493359375,-0.148440502929687
5.13038827023777,0.397437475585937,10.0029745361328,-0.215478149414062
5.13297441748169,0.488417138671875,9.9981861328125,-0.272938989257812
5.13540472802857,0.502782348632812,9.95987890625,-0.311246215820312
5.13783503857544,0.488417138671875,9.90720646972656,-0.2681505859375
5.14026534912232,0.4979939453125,9.8449572265625,-0.397437475585937
5.14269373182631,0.483628735351562,9.82101520996094,-0.316034619140625
5.1451221145303,0.526724365234375,9.80186159667969,-0.244208569335937
5.14755049723429,0.5746083984375,9.79228479003906,-0.320823022460937
5.14997964700643,0.565031591796875,9.73482395019531,-0.186747729492187
5.15240879677856,0.560243188476563,9.6917283203125,-0.13407529296875
5.1548379465507,0.579396801757812,9.63426748046875,-0.028730419921875
5.16102174464098,0.416591088867187,9.81143840332031,-0.354341845703125
5.16720554273127,0.378283862304687,9.75397756347656,-0.368707055664062
5.17338934082155,0.373495458984375,9.77313117675781,-0.36391865234375
5.18709133547759,-0.21068974609375,10.0317049560547,-0.0622492431640625
5.20079333013363,-0.138863696289063,10.1035310058594,-0.05746083984375
5.21449532478967,-0.201112939453125,10.1131078125,-0.0383072265625
5.21698940595287,-0.244208569335937,10.0939541992188,-0.0335188232421875
5.21948348711607,-0.3064578125,10.1178962158203,0.047884033203125
5.22197756827926,-0.258573779296875,10.0748005859375,0.0383072265625
5.22446729312736,-0.1915361328125,10.0508585693359,0.0047884033203125
5.22695701797545,-0.21068974609375,10.0317049560547,-0.009576806640625
5.22944674282355,-0.215478149414062,9.97424411621094,-0.05746083984375
5.23198844028449,-0.234631762695312,9.96945571289062,-0.0622492431640625
5.23453013774543,-0.24899697265625,9.93593688964844,-0.0526724365234375
5.23707183520637,-0.24899697265625,9.88805285644531,-0.105344873046875
5.2396035558444,-0.220266552734375,9.95987890625,-0.0814028564453125
5.24213527648242,-0.205901342773437,9.97903251953125,-0.076614453125
5.24466699712044,-0.272938989257812,9.96466730957031,-0.100556469726563
5.2471871182142,-0.253785375976562,9.91678327636719,-0.0430956298828125
5.24970723930794,-0.234631762695312,9.99339772949219,-0.0143652099609375
5.25222736040169,-0.292092602539062,9.96466730957031,-0.009576806640625
5.25473583051888,-0.292092602539062,10.0221281494141,0.0430956298828125
5.25724430063606,-0.316034619140625,9.96945571289062,0.0239420166015625
5.25975277075324,-0.335188232421875,9.96945571289062,0.067037646484375
5.26225608705098,-0.32561142578125,9.96945571289062,0.0526724365234375
5.26475940334872,-0.387860668945312,10.0125513427734,0.01915361328125
5.26726271964647,-0.464475122070312,9.98860932617187,0.100556469726563
5.26976314884569,-0.407014282226562,10.0125513427734,0.05746083984375
5.27226357804491,-0.407014282226562,10.0029745361328,0.0622492431640625
5.27476400724413,-0.450109912109375,9.97903251953125,0.143652099609375
5.27726646443814,-0.416591088867187,9.97424411621094,0.181959326171875
5.27976892163214,-0.416591088867187,9.96466730957031,0.177170922851562
5.28227137882615,-0.416591088867187,9.97903251953125,0.177170922851562
5.2848375607923,-0.411802685546875,9.96945571289062,0.181959326171875
5.28740374275845,-0.435744702148437,9.96945571289062,0.205901342773437
5.2899699247246,-0.450109912109375,9.99339772949219,0.215478149414062
5.29242692586392,-0.435744702148437,10.0029745361328,0.24899697265625
5.29488392700324,-0.416591088867187,10.0173397460938,0.205901342773437
5.29734092814256,-0.411802685546875,10.0125513427734,0.181959326171875
5.29968768286261,-0.411802685546875,9.96945571289062,0.167594116210937
5.30203443758266,-0.40222587890625,10.0077629394531,0.143652099609375
5.30438119230271,-0.411802685546875,10.0029745361328,0.067037646484375
5.30672755873067,-0.435744702148437,10.0460701660156,0.067037646484375
5.30907392515862,-0.378283862304687,10.0939541992188,0.158017309570312
5.31142029158657,-0.387860668945312,10.1849338623047,0.215478149414062
5.31376678317729,-0.349553442382812,10.1466266357422,0.17238251953125
5.316113274768,-0.349553442382812,10.1801454589844,0.215478149414062
5.31845976635871,-0.32561142578125,10.1657802490234,0.258573779296875
5.32080105406487,-0.339976635742188,10.2184526855469,0.277727392578125
5.32314234177103,-0.316034619140625,10.1945106689453,0.378283862304687
5.32548362947719,-0.272938989257812,10.2519715087891,0.416591088867187
5.32782753670375,-0.253785375976562,10.2280294921875,0.407014282226562
5.33017144393031,-0.3064578125,10.1753570556641,0.47884033203125
5.33251535115687,-0.311246215820312,10.1992990722656,0.411802685546875
5.33478457695982,-0.277727392578125,10.1945106689453,0.301669409179687
5.33705380276277,-0.263362182617187,10.1514150390625,0.368707055664062
5.33932302856572,-0.292092602539062,10.0987426025391,0.349553442382812
5.34159484054729,-0.301669409179687,10.1226846191406,0.311246215820312
5.34386665252887,-0.339976635742188,10.0604353759766,0.316034619140625
5.34613846451045,-0.383072265625,10.1226846191406,0.3064578125
5.34841527279074,-0.387860668945312,10.0795889892578,0.13407529296875
5.35069208107103,-0.40222587890625,10.0652237792969,0.21068974609375
5.35296888935132,-0.450109912109375,10.1035310058594,0.186747729492187
5.35524903843986,-0.469263525390625,10.1609918457031,0.244208569335937
5.3575291875284,-0.464475122070312,10.1178962158203,0.220266552734375
5.35980933661693,-0.502782348632812,10.1274730224609,0.239420166015625
5.36209072864046,-0.507570751953125,10.1370498291016,0.296881005859375
5.36437212066399,-0.483628735351562,10.1131078125,0.263362182617187
5.36665351268752,-0.502782348632812,10.1274730224609,0.301669409179687
5.36893600322331,-0.450109912109375,10.1083194091797,0.368707055664062
5.37121849375909,-0.450109912109375,10.0652237792969,0.2681505859375
5.37350098429488,-0.45968671875,10.0795889892578,0.296881005859375
5.38390907335971,0.0335188232421875,9.9215716796875,0.416591088867187
5.39431716242454,0.05746083984375,9.90241806640625,0.397437475585937
5.40472525148937,-0.009576806640625,9.94072529296875,0.3447650390625
5.40706177905014,0.01915361328125,9.85453403320312,0.311246215820312
5.4093983066109,0.105344873046875,9.88805285644531,0.301669409179687
5.41173483417166,0.067037646484375,9.85932243652344,0.320823022460937
5.41407263673552,0.0622492431640625,9.81622680664062,0.296881005859375
5.41641043929938,0.0430956298828125,9.82101520996094,0.3064578125
5.41874824186324,0.05746083984375,9.80665,0.3064578125
5.4210872098537,0.076614453125,9.87368764648437,0.292092602539062
5.42342617784415,0.0526724365234375,9.85932243652344,0.253785375976562
5.4257651458346,0.067037646484375,9.86889924316406,0.272938989257812
5.42809575762388,0.100556469726563,9.88805285644531,0.239420166015625
5.43042636941315,0.13407529296875,9.87847604980469,0.258573779296875
5.43275698120243,0.119710083007812,9.86889924316406,0.2681505859375
5.43514168869483,0.129286889648437,9.86889924316406,0.229843359375
5.43752639618724,0.15322890625,9.87847604980469,0.220266552734375
5.43991110367965,0.138863696289063,9.90241806640625,0.244208569335937
5.44228447024323,0.167594116210937,9.93114848632812,0.258573779296875
5.44465783680681,0.143652099609375,9.93114848632812,0.2681505859375
5.4470312033704,0.162805712890625,9.95030209960937,0.239420166015625
5.44939249799387,0.162805712890625,9.91678327636719,0.36391865234375
5.45175379261734,0.215478149414062,9.94072529296875,0.301669409179687
5.45411508724082,0.129286889648437,9.97424411621094,0.244208569335937
5.45646509117419,0.17238251953125,9.9981861328125,0.215478149414062
5.45881509510757,0.158017309570312,9.9215716796875,0.196324536132812
5.46116509904094,0.186747729492187,9.95987890625,0.196324536132812
5.46351330666898,0.201112939453125,10.0125513427734,0.1915361328125
5.46586151429701,0.201112939453125,10.0173397460938,0.143652099609375
5.46820972192505,0.239420166015625,10.0412817626953,0.162805712890625
5.47062598722453,0.244208569335937,10.0412817626953,0.13407529296875
5.47304225252401,0.21068974609375,10.0891657958984,0.148440502929687
5.47545851782348,0.201112939453125,10.1562034423828,0.215478149414062
5.47787525344631,0.201112939453125,10.1035310058594,0.13407529296875
5.48029198906913,0.239420166015625,10.1226846191406,0.162805712890625
5.48270872469196,0.239420166015625,10.1322614257812,0.09576806640625
5.48512499568805,0.253785375976562,10.1083194091797,0.105344873046875
5.48754126668414,0.234631762695312,10.1178962158203,0.119710083007812
5.48995753768023,0.24899697265625,10.0795889892578,0.067037646484375
5.49233965096147,0.253785375976562,10.1274730224609,0.100556469726563
5.49472176424272,0.215478149414062,10.1083194091797,0.100556469726563
5.49710387752397,0.292092602539062,10.1131078125,0.076614453125
5.49945192369367,0.2681505859375,10.1370498291016,0.0718260498046875
5.50179996986338,0.225054956054687,10.1083194091797,0.105344873046875
5.50414801603308,0.21068974609375,10.1370498291016,0.138863696289063
5.506566057754,0.1915361328125,10.1992990722656,0.1915361328125
5.50898409947492,0.196324536132812,10.189722265625,0.162805712890625
5.51140214119583,0.167594116210937,10.2040874755859,0.13407529296875
5.51405283585729,0.205901342773437,10.1992990722656,0.2681505859375
5.51670353051876,0.162805712890625,10.2519715087891,0.234631762695312
5.51935422518022,0.1149216796875,10.2232410888672,0.138863696289063
5.52200586911469,0.09576806640625,10.2950671386719,0.067037646484375
5.52465751304915,0.09576806640625,10.2328178955078,0.09576806640625
5.52730915698362,0.110133276367187,10.2088758789062,0.0335188232421875
5.52992451093327,0.028730419921875,10.1849338623047,0.0
5.53253986488292,0.0383072265625,10.2040874755859,-0.01915361328125
5.53515521883257,0.047884033203125,10.2376062988281,-0.0239420166015625
5.53773305748275,0.028730419921875,10.2040874755859,0.01915361328125
5.54031089613292,0.009576806640625,10.2280294921875,0.0239420166015625
5.54288873478309,0.009576806640625,10.2184526855469,-0.0239420166015625
5.54546532902138,0.0047884033203125,10.189722265625,-0.028730419921875
5.54804192325966,0.01915361328125,10.2280294921875,0.047884033203125
5.55061851749795,0.0047884033203125,10.1849338623047,-0.028730419921875
5.55319500084214,-0.0239420166015625,10.2040874755859,-0.0430956298828125
5.55577148418632,0.009576806640625,10.1322614257812,0.0
5.55834796753051,0.0047884033203125,10.1657802490234,-0.086191259765625
5.56092438582478,0.0143652099609375,10.1753570556641,-0.0383072265625
5.56350080411905,0.0814028564453125,10.1945106689453,-0.086191259765625
5.56607722241333,0.028730419921875,10.1657802490234,-0.0909796630859375
5.58449378192938,0.110133276367187,10.0652237792969,-0.143652099609375
5.60291034144544,0.124498486328125,10.0412817626953,-0.158017309570312
5.62132690096149,0.110133276367187,10.0700121826172,-0.181959326171875
5.62374464510212,0.177170922851562,10.1178962158203,-0.15322890625
5.62616238924274,0.148440502929687,10.1226846191406,-0.162805712890625
5.62858013338337,0.148440502929687,10.1083194091797,-0.076614453125
5.6310023322766,0.177170922851562,10.1466266357422,-0.0814028564453125
5.63342453116983,0.143652099609375,10.1514150390625,-0.067037646484375
5.63584673006307,0.17238251953125,10.1226846191406,-0.086191259765625
5.63827057066636,0.158017309570312,10.1035310058594,-0.0718260498046875
5.64069441126965,0.181959326171875,10.0987426025391,-0.0814028564453125
5.64311825187295,0.143652099609375,10.0748005859375,-0.0718260498046875
5.64554217233736,0.086191259765625,10.0652237792969,0.01915361328125
5.64796609280178,0.158017309570312,9.98382092285156,-0.009576806640625
5.65039001326619,0.0814028564453125,10.0843773925781,-0.0335188232421875
5.652805555177,0.0143652099609375,10.0317049560547,-0.01915361328125
5.65522109708781,0.0335188232421875,9.97903251953125,-0.0383072265625
5.65763663899862,0.0047884033203125,10.0221281494141,-0.0239420166015625
5.6600402194294,0.009576806640625,10.0221281494141,-0.05746083984375
5.66244379986018,-0.0143652099609375,9.98382092285156,-0.0239420166015625
5.66484738029095,-0.0430956298828125,9.9981861328125,-0.028730419921875
5.66723896083023,0.0047884033203125,10.0077629394531,0.0
5.66963054136951,-0.028730419921875,9.9981861328125,-0.0383072265625
5.6720221219088,0.0,9.97424411621094,0.0143652099609375
5.67685384206939,0.0526724365234375,10.0029745361328,0.067037646484375
5.68168556222999,0.028730419921875,10.036493359375,0.0526724365234375
5.68651728239058,0.0430956298828125,9.9981861328125,-0.0383072265625
5.68893831374909,0.0814028564453125,9.95509050292969,0.01915361328125
5.6913593451076,0.110133276367187,9.93114848632812,0.0143652099609375
5.69378037646611,0.05746083984375,9.97903251953125,-0.0047884033203125
5.69620241759025,0.1149216796875,9.95030209960937,0.028730419921875
5.69862445871439,0.0909796630859375,9.96466730957031,0.0622492431640625
5.70104649983853,0.105344873046875,9.94551369628906,0.0718260498046875
5.7034715651597,0.110133276367187,9.94072529296875,0.067037646484375
5.70589663048088,0.0622492431640625,9.94072529296875,0.0622492431640625
5.70832169580206,0.105344873046875,9.94072529296875,-0.009576806640625
5.71071574815666,0.09576806640625,9.96945571289062,0.0
5.71310980051126,0.105344873046875,9.96466730957031,-0.0814028564453125
5.71550385286587,0.110133276367187,9.97424411621094,-0.1149216796875
5.717923562013,0.129286889648437,10.0221281494141,-0.0814028564453125
5.72034327116013,0.143652099609375,10.0317049560547,-0.148440502929687
5.72276298030727,0.162805712890625,10.0317049560547,-0.124498486328125
5.72518124446743,0.162805712890625,10.0269165527344,-0.244208569335937
5.72759950862759,0.158017309570312,10.0269165527344,-0.296881005859375
5.73001777278775,0.1915361328125,10.0460701660156,-0.330399829101562
5.73243322184373,0.167594116210937,10.0700121826172,-0.378283862304687
5.73484867089972,0.201112939453125,10.0460701660156,-0.316034619140625
5.73726411995571,0.225054956054687,10.0652237792969,-0.311246215820312
5.7396766979722,0.24899697265625,10.0795889892578,-0.277727392578125
5.74208927598869,0.201112939453125,10.0748005859375,-0.181959326171875
5.74450185400518,0.234631762695312,10.0891657958984,-0.143652099609375
5.74688343001429,0.263362182617187,10.0843773925781,-0.138863696289063
5.74926500602341,0.239420166015625,10.0939541992188,-0.148440502929687
5.75164658203252,0.277727392578125,10.1131078125,-0.086191259765625
5.75406659792879,0.292092602539062,10.0987426025391,-0.129286889648437
5.75648661382507,0.2681505859375,10.1226846191406,-0.143652099609375
5.75890662972134,0.28730419921875,10.1178962158203,-0.186747729492187
5.76132677338453,0.330399829101562,10.1226846191406,-0.21068974609375
5.76374691704773,0.292092602539062,10.0748005859375,-0.162805712890625
5.76616706071093,0.32561142578125,10.0317049560547,-0.1915361328125
5.76858730707595,0.3064578125,10.0412817626953,-0.263362182617187
5.77100755344097,0.387860668945312,10.0221281494141,-0.3064578125
5.77342779980599,0.359130249023437,10.0748005859375,-0.263362182617187
5.77584814751649,0.354341845703125,10.0652237792969,-0.2681505859375
5.77826849522699,0.368707055664062,10.1609918457031,-0.292092602539062
5.78068884293749,0.407014282226562,10.1226846191406,-0.330399829101562
5.78307493489712,0.407014282226562,10.0843773925781,-0.296881005859375
5.78546102685676,0.430956298828125,10.0843773925781,-0.383072265625
5.78784711881639,0.45968671875,10.1035310058594,-0.3447650390625
5.79042408664407,0.44053310546875,10.1178962158203,-0.3447650390625
5.79300105447175,0.464475122070312,10.1035310058594,-0.316034619140625
5.79557802229944,0.493205541992187,10.0508585693359,-0.40222587890625
5.79815837147478,0.47884033203125,10.0939541992188,-0.330399829101562
5.80073872065012,0.51714755859375,10.1083194091797,-0.277727392578125
5.80331906982546,0.55545478515625,10.0987426025391,-0.282515795898438
5.80589943842355,0.488417138671875,10.0987426025391,-0.320823022460937
5.80847980702163,0.59376201171875,10.0891657958984,-0.373495458984375
5.81106017561972,0.526724365234375,10.0508585693359,-0.3447650390625
5.81364328070869,0.550666381835937,10.0556469726563,-0.3447650390625
5.81622638579766,0.560243188476563,10.0077629394531,-0.411802685546875
5.81880949088664,0.5746083984375,10.0508585693359,-0.354341845703125
5.82120243386624,0.55545478515625,10.0460701660156,-0.32561142578125
5.82359537684584,0.55545478515625,10.0652237792969,-0.301669409179687
5.82598831982544,0.588973608398437,10.0460701660156,-0.32561142578125
5.82825366324992,0.603338818359375,10.0029745361328,-0.301669409179687
5.8305190066744,0.617704028320312,10.0508585693359,-0.272938989257812
5.83278435009888,0.5746083984375,10.0556469726563,-0.263362182617187
5.83504990815009,0.665588061523437,10.0843773925781,-0.282515795898438
5.83731546620131,0.636857641601562,10.0795889892578,-0.244208569335937
5.83958102425252,0.67037646484375,10.0795889892578,-0.215478149414062
5.85071194088493,1.22583125,9.98860932617187,-0.2681505859375
5.86184285751734,1.24498486328125,10.0748005859375,-0.301669409179687
5.87297377414974,1.22104284667969,10.0843773925781,-0.3064578125
5.87515447547581,1.28329208984375,10.0508585693359,-0.263362182617187
5.87733517680188,1.302445703125,10.0077629394531,-0.196324536132812
5.87951587812795,1.31202250976562,10.036493359375,-0.181959326171875
5.88168974847928,1.35511813964844,10.0221281494141,-0.100556469726563
5.88386361883061,1.32159931640625,9.9981861328125,-0.13407529296875
5.88603748918195,1.31202250976562,9.95987890625,-0.158017309570312
5.88827349123216,1.38384855957031,9.97903251953125,-0.181959326171875
5.89050949328236,1.31681091308594,9.91678327636719,-0.244208569335937
5.89274549533257,1.26892687988281,9.93593688964844,-0.282515795898438
5.89497575885596,1.30723410644531,9.95030209960937,-0.36391865234375
5.89720602237935,1.28808049316406,9.92636008300781,-0.435744702148437
5.89943628590274,1.29286889648437,9.92636008300781,-0.378283862304687
5.90166065063456,1.25935007324219,9.88805285644531,-0.411802685546875
5.90388501536638,1.25935007324219,9.87847604980469,-0.301669409179687
5.9061093800982,1.24977326660156,9.93593688964844,-0.205901342773437
5.90832814844729,1.24019645996094,9.90720646972656,-0.201112939453125
5.91054691679638,1.21146604003906,9.85453403320312,-0.234631762695312
5.91276568514547,1.22104284667969,9.79707319335937,-0.215478149414062
5.91497775837053,1.13006318359375,9.80665,-0.148440502929687
5.91718983159559,1.13963999023438,9.86889924316406,-0.15322890625
5.91940190482065,1.17315881347656,9.8449572265625,-0.181959326171875
5.92160718428885,1.21146604003906,9.81622680664062,-0.1915361328125
5.92381246375705,1.19710083007812,9.85453403320312,-0.205901342773437
5.92601774322525,1.20667763671875,9.83538041992187,-0.13407529296875
5.92939637015838,1.20188923339844,9.883264453125,-0.186747729492187
5.93277499709152,1.21146604003906,9.9215716796875,-0.21068974609375
5.93615362402466,1.19231242675781,9.94551369628906,-0.215478149414062
5.93849017632501,1.20667763671875,9.94551369628906,-0.21068974609375
5.94082672862536,1.22104284667969,9.9215716796875,-0.234631762695312
5.94316328092572,1.20667763671875,9.93114848632812,-0.2681505859375
5.94550287966703,1.22104284667969,9.96945571289062,-0.201112939453125
5.94784247840835,1.21625444335937,9.95987890625,-0.1915361328125
5.95018207714966,1.24019645996094,9.96945571289062,-0.201112939453125
5.95252209863403,1.26892687988281,9.94551369628906,-0.1915361328125
5.95486212011841,1.23061965332031,9.91199487304687,-0.1915361328125
5.95720214160278,1.28808049316406,9.97424411621094,-0.272938989257812
5.9595421779526,1.24977326660156,9.91199487304687,-0.158017309570312
5.96188221430243,1.28808049316406,9.9215716796875,-0.196324536132812
5.96422225065226,1.25935007324219,9.89284125976562,-0.17238251953125
5.96656240635971,1.25935007324219,9.89284125976562,-0.158017309570312
5.96890256206717,1.21625444335937,9.89762966308594,-0.167594116210937
5.97124271777463,1.19710083007812,9.92636008300781,-0.205901342773437
5.97358285839963,1.1875240234375,9.93593688964844,-0.225054956054687
5.97592299902464,1.19710083007812,9.90241806640625,-0.158017309570312
5.97826313964964,1.1875240234375,9.90720646972656,-0.167594116210937
5.98425984388684,1.22104284667969,9.83538041992187,-0.1915361328125
5.99025654812404,1.23540805664062,9.80665,-0.263362182617187
5.99625325236124,1.24498486328125,9.74918916015625,-0.330399829101562
5.99890546807305,1.21625444335937,9.76355437011719,-0.28730419921875
6.00155768378485,1.21146604003906,9.76355437011719,-0.272938989257812
6.00420989949666,1.27371528320312,9.66299790039063,-0.253785375976562
6.00686355921889,1.25456166992187,9.62947907714844,-0.21068974609375
6.00951721894111,1.22583125,9.730035546875,-0.2681505859375
6.01217087866334,1.22104284667969,9.72524714355469,-0.244208569335937
6.01482241425362,1.21625444335937,9.68215151367187,-0.272938989257812
6.01747394984389,1.20667763671875,9.66299790039063,-0.32561142578125
6.02012548543416,1.21625444335937,9.67736311035156,-0.28730419921875
6.02277602384563,1.20667763671875,9.66299790039063,-0.368707055664062
6.02542656225709,1.23540805664062,9.64863269042969,-0.316034619140625
6.02807710066855,1.1875240234375,9.68215151367187,-0.24899697265625
6.03065466946196,1.23061965332031,9.72045874023437,-0.253785375976562
6.03323223825536,1.20188923339844,9.72524714355469,-0.258573779296875
6.03580980704876,1.19710083007812,9.72045874023437,-0.13407529296875
6.03823521904963,1.17315881347656,9.68693991699219,-0.162805712890625
6.0406606310505,1.16358200683594,9.74440075683594,-0.119710083007812
6.04308604305137,1.149216796875,9.75397756347656,-0.205901342773437
6.0491425961384,0.871489404296875,10.0556469726563,-0.407014282226562
6.05519914922543,0.828393774414062,10.0508585693359,-0.416591088867187
6.06125570231245,0.828393774414062,10.0604353759766,-0.411802685546875
6.08031231430788,0.617704028320312,9.84016882324219,0.119710083007812
6.09936892630331,0.541089575195312,9.80665,0.09576806640625
6.11842553829873,0.521935961914062,9.87368764648437,-0.01915361328125
6.12078355557846,0.55545478515625,9.84974562988281,-0.143652099609375
6.12314157285819,0.526724365234375,9.8449572265625,-0.205901342773437
6.12549959013792,0.536301171875,9.92636008300781,-0.158017309570312
6.1278585628864,0.536301171875,9.9215716796875,-0.24899697265625
6.13021753563488,0.502782348632812,9.90720646972656,-0.205901342773437
6.13257650838336,0.550666381835937,9.88805285644531,-0.201112939453125
6.13493640790593,0.579396801757812,9.9215716796875,-0.215478149414062
6.13729630742851,0.617704028320312,9.89284125976562,-0.1915361328125
6.13965620695108,0.608127221679687,9.95030209960937,-0.239420166015625
6.14325993012273,0.608127221679687,9.97903251953125,-0.110133276367187
6.14686365329439,0.622492431640625,9.96466730957031,-0.129286889648437
6.15046737646604,0.608127221679687,9.9981861328125,-0.09576806640625
6.15281529758148,0.565031591796875,10.0173397460938,-0.0909796630859375
6.15516321869693,0.4979939453125,10.0077629394531,-0.076614453125
6.15751113981237,0.521935961914062,9.99339772949219,-0.076614453125
6.15985809554154,0.531512768554687,9.99339772949219,0.01915361328125
6.1622050512707,0.526724365234375,10.0412817626953,-0.086191259765625
6.16455200699987,0.536301171875,10.0125513427734,-0.05746083984375
6.16689888937834,0.531512768554687,9.99339772949219,-0.0718260498046875
6.16924577175682,0.507570751953125,10.0173397460938,-0.076614453125
6.1715926541353,0.464475122070312,10.0317049560547,-0.0909796630859375
6.17393942670474,0.502782348632812,10.0604353759766,-0.0239420166015625
6.17628619927419,0.47884033203125,10.0269165527344,-0.086191259765625
6.17863297184364,0.464475122070312,10.0604353759766,0.0047884033203125
6.18104780886621,0.45968671875,10.0029745361328,-0.0239420166015625
6.18346264588878,0.502782348632812,10.0173397460938,-0.028730419921875
6.18587748291135,0.493205541992187,10.0173397460938,-0.05746083984375
6.18829386018999,0.483628735351562,10.0077629394531,-0.028730419921875
6.19071023746863,0.450109912109375,9.97903251953125,-0.047884033203125
6.19312661474727,0.493205541992187,9.98860932617187,-0.0239420166015625
6.19554089089745,0.51714755859375,10.0173397460938,-0.0526724365234375
6.19795516704762,0.493205541992187,10.0221281494141,0.0
6.2003694431978,0.507570751953125,10.036493359375,-0.0047884033203125
6.20272017561967,0.4979939453125,10.036493359375,0.0526724365234375
6.20507090804154,0.512359155273437,10.0508585693359,0.0909796630859375
6.20742164046341,0.469263525390625,10.0508585693359,-0.009576806640625
6.20977148660057,0.4979939453125,10.0652237792969,-0.0335188232421875
6.21212133273773,0.464475122070312,10.0269165527344,-0.177170922851562
6.21447117887489,0.474051928710937,10.0317049560547,-0.282515795898438
6.21688966802419,0.493205541992187,10.0604353759766,-0.311246215820312
6.2193081571735,0.474051928710937,10.0460701660156,-0.359130249023437
6.22172664632281,0.488417138671875,9.98860932617187,-0.320823022460937
6.22414592290701,0.4979939453125,10.0508585693359,-0.296881005859375
6.22656519949121,0.4979939453125,9.9981861328125,-0.229843359375
6.22898447607541,0.488417138671875,10.0221281494141,-0.253785375976562
6.23140374452159,0.45968671875,10.0125513427734,-0.201112939453125
6.23382301296776,0.464475122070312,10.036493359375,-0.186747729492187
6.23624228141394,0.4979939453125,10.0173397460938,-0.229843359375
6.23859243896602,0.4979939453125,10.0221281494141,-0.21068974609375
6.24094259651811,0.474051928710937,10.0412817626953,-0.177170922851562
6.2432927540702,0.483628735351562,10.0317049560547,-0.201112939453125
6.245488258736,0.474051928710937,9.9981861328125,-0.225054956054687
6.2476837634018,0.426167895507812,10.0269165527344,-0.277727392578125
6.2498792680676,0.411802685546875,9.97903251953125,-0.277727392578125
6.25221738785927,0.392649072265625,10.0269165527344,-0.296881005859375
6.25455550765094,0.44053310546875,10.0556469726563,-0.21068974609375
6.25689362744261,0.416591088867187,10.0125513427734,-0.253785375976562
6.25930576123167,0.426167895507812,10.036493359375,-0.138863696289063
6.26171789502073,0.445321508789062,10.0412817626953,-0.138863696289063
6.26413002880979,0.416591088867187,10.0317049560547,-0.196324536132812
6.2666153649643,0.36391865234375,10.0221281494141,-0.186747729492187
6.2691007011188,0.454898315429687,9.9981861328125,-0.1915361328125
6.27158603727331,0.378283862304687,10.0125513427734,-0.1149216796875
6.27407071348859,0.4213794921875,10.0221281494141,-0.181959326171875
6.27655538970387,0.40222587890625,9.98860932617187,-0.186747729492187
6.27904006591915,0.383072265625,9.9981861328125,-0.186747729492187
6.28152557394866,0.383072265625,10.0173397460938,-0.28730419921875
6.28401108197818,0.411802685546875,10.036493359375,-0.21068974609375
6.2864965900077,0.387860668945312,10.0221281494141,-0.24899697265625
6.28898326513791,0.397437475585937,10.036493359375,-0.229843359375
6.29146994026812,0.36391865234375,10.036493359375,-0.17238251953125
6.29395661539833,0.36391865234375,10.0843773925781,-0.158017309570312
6.29643432740055,0.411802685546875,10.0556469726563,-0.158017309570312
6.29891203940277,0.4213794921875,10.0077629394531,-0.138863696289063
6.30138975140499,0.40222587890625,10.0317049560547,-0.13407529296875
6.30752537325151,0.435744702148437,9.95987890625,-0.09576806640625
6.31366099509802,0.47884033203125,9.96466730957031,-0.076614453125
6.31979661694454,0.469263525390625,10.0125513427734,-0.076614453125
6.32722133851571,0.45968671875,10.0221281494141,-0.378283862304687
6.33464606008689,0.411802685546875,10.0077629394531,-0.316034619140625
6.34207078165807,0.464475122070312,10.0173397460938,-0.24899697265625
6.34948522783863,0.407014282226562,10.0748005859375,-0.167594116210937
6.35689967401919,0.397437475585937,10.0987426025391,-0.201112939453125
6.36431412019974,0.383072265625,10.0939541992188,-0.181959326171875
6.36674105357648,0.387860668945312,10.0939541992188,-0.177170922851562
6.36916798695322,0.407014282226562,10.0987426025391,-0.196324536132812
6.37159492032996,0.378283862304687,10.1083194091797,-0.158017309570312
6.3740232115626,0.392649072265625,10.0939541992188,-0.196324536132812
6.37645150279525,0.368707055664062,10.0987426025391,-0.167594116210937
6.37887979402789,0.373495458984375,10.0891657958984,-0.13407529296875
6.38130772371538,0.349553442382812,10.0987426025391,-0.205901342773437
6.38373565340288,0.359130249023437,10.1178962158203,-0.220266552734375
6.38616358309037,0.354341845703125,10.0460701660156,-0.277727392578125
6.38858988050791,0.32561142578125,10.0891657958984,-0.24899697265625
6.39101617792544,0.339976635742188,10.0508585693359,-0.239420166015625
6.39344247534297,0.320823022460937,10.0460701660156,-0.186747729492187
6.39594420255651,0.335188232421875,10.0317049560547,-0.162805712890625
6.39844592977006,0.32561142578125,10.0412817626953,-0.186747729492187
6.4009476569836,0.28730419921875,10.0269165527344,-0.15322890625
6.40345273532562,0.2681505859375,10.0173397460938,-0.105344873046875
6.40595781366764,0.301669409179687,10.036493359375,-0.15322890625
6.40846289200966,0.335188232421875,10.0269165527344,-0.21068974609375
6.41096931171452,0.28730419921875,9.99339772949219,-0.138863696289063
6.41347573141938,0.3064578125,9.98382092285156,-0.167594116210937
6.41598215112425,0.2681505859375,9.98382092285156,-0.13407529296875
6.41849222490897,0.296881005859375,9.95030209960937,-0.09576806640625
6.42100229869369,0.3064578125,9.93114848632812,-0.047884033203125
6.42351237247841,0.272938989257812,9.96466730957031,0.028730419921875
6.42602326136729,0.292092602539062,9.96466730957031,0.0526724365234375
6.42853415025618,0.320823022460937,9.92636008300781,0.0239420166015625
6.43104503914507,0.282515795898438,9.94072529296875,0.110133276367187
6.43348521167111,0.301669409179687,9.90720646972656,-0.0335188232421875
6.43592538419716,0.311246215820312,9.89284125976562,-0.158017309570312
6.43836555672321,0.292092602539062,9.88805285644531,-0.158017309570312
6.44057282462684,0.301669409179687,9.90720646972656,-0.196324536132812
6.44278009253048,0.330399829101562,9.91199487304687,-0.301669409179687
6.44498736043412,0.311246215820312,9.89284125976562,-0.225054956054687
6.45087132774641,0.349553442382812,9.94551369628906,-0.105344873046875
6.4567552950587,0.320823022460937,9.96466730957031,-0.129286889648437
6.46263926237098,0.296881005859375,9.95030209960937,-0.181959326171875
6.46521024452159,0.301669409179687,9.98860932617187,-0.05746083984375
6.4677812266722,0.3064578125,9.95987890625,-0.0526724365234375
6.4703522088228,0.272938989257812,9.97903251953125,-0.09576806640625
6.47292727805024,0.316034619140625,9.96466730957031,-0.047884033203125
6.47550234727767,0.316034619140625,9.98382092285156,-0.009576806640625
6.4780774165051,0.277727392578125,9.98860932617187,-0.05746083984375
6.48065628727333,0.263362182617187,9.98382092285156,-0.0622492431640625
6.48323515804156,0.301669409179687,9.96466730957031,-0.110133276367187
6.48581402880978,0.263362182617187,9.95987890625,-0.13407529296875
6.4883957509545,0.258573779296875,9.9215716796875,-0.09576806640625
6.49097747309923,0.220266552734375,9.93593688964844,-0.105344873046875
6.49355919524395,0.229843359375,9.94551369628906,-0.110133276367187
6.49613320429652,0.21068974609375,9.93593688964844,-0.110133276367187
6.4987072133491,0.220266552734375,9.94551369628906,-0.1915361328125
6.50128122240167,0.220266552734375,9.94551369628906,-0.124498486328125
6.50384713196889,0.1915361328125,9.90720646972656,-0.110133276367187
6.5064130415361,0.177170922851562,9.94551369628906,-0.100556469726563
6.50897895110332,0.177170922851562,9.93593688964844,-0.129286889648437
6.521671102548,0.110133276367187,9.94551369628906,-0.138863696289063
6.53436325399269,0.067037646484375,9.96466730957031,-0.1149216796875
6.54705540543738,0.110133276367187,9.96945571289062,-0.17238251953125
6.5608753705795,0.047884033203125,9.96945571289062,-0.167594116210937
6.57469533572161,0.076614453125,9.95509050292969,-0.167594116210937
6.58851530086373,0.0143652099609375,9.9981861328125,-0.100556469726563
6.59107971047744,0.0,9.99339772949219,-0.1149216796875
6.59364412009116,0.009576806640625,9.98382092285156,-0.220266552734375
6.59620852970487,-0.0239420166015625,9.98382092285156,-0.196324536132812
6.59876500516421,-0.01915361328125,9.95030209960937,-0.17238251953125
6.60132148062355,-0.009576806640625,9.97424411621094,-0.148440502929687
6.6038779560829,-0.047884033203125,9.96466730957031,-0.158017309570312
6.60639679268952,-0.028730419921875,9.98382092285156,-0.148440502929687
6.60891562929615,-0.0430956298828125,9.97424411621094,-0.15322890625
6.61143446590278,-0.0430956298828125,10.0029745361328,-0.167594116210937
6.61394330590929,-0.0430956298828125,9.98382092285156,-0.100556469726563
6.6164521459158,-0.076614453125,9.95509050292969,-0.086191259765625
6.61896098592231,-0.028730419921875,9.94551369628906,-0.09576806640625
6.62146676044488,-0.0718260498046875,9.95030209960937,-0.143652099609375
6.62397253496745,-0.05746083984375,9.97424411621094,-0.225054956054687
6.62647830949003,-0.0622492431640625,9.93593688964844,-0.148440502929687
6.62898037269532,-0.0335188232421875,9.9215716796875,-0.239420166015625
6.63148243590061,-0.009576806640625,9.94072529296875,-0.244208569335937
6.63398449910591,-0.05746083984375,9.90720646972656,-0.220266552734375
6.64028008013346,0.0047884033203125,9.94551369628906,-0.181959326171875
6.64657566116102,0.0239420166015625,9.9215716796875,-0.244208569335937
6.65287124218857,0.0,9.95987890625,-0.1915361328125
6.65552451844725,0.0383072265625,9.96466730957031,-0.201112939453125
6.65817779470592,0.0335188232421875,9.95509050292969,-0.158017309570312
6.6608310709646,0.05746083984375,9.98860932617187,-0.162805712890625
6.66356164203665,0.0430956298828125,10.0029745361328,-0.205901342773437
6.6662922131087,0.028730419921875,10.0317049560547,-0.105344873046875
6.66902278418075,0.0239420166015625,9.99339772949219,-0.196324536132812
6.67175421332572,0.028730419921875,9.96945571289062,-0.148440502929687
6.67448564247069,0.0,9.99339772949219,-0.158017309570312
6.67721707161567,0.028730419921875,10.036493359375,-0.110133276367187
6.67994863845595,0.09576806640625,10.0029745361328,-0.13407529296875
6.68268020529623,0.0383072265625,9.97903251953125,-0.148440502929687
6.68541177213651,0.01915361328125,10.0317049560547,-0.0718260498046875
6.688074029732,-0.0143652099609375,10.0077629394531,-0.086191259765625
6.69073628732749,0.028730419921875,10.0173397460938,-0.105344873046875
6.69339854492298,0.0430956298828125,10.0317049560547,-0.09576806640625
6.69606006152454,0.0383072265625,9.9981861328125,-0.138863696289063
6.6987215781261,0.0622492431640625,9.98860932617187,-0.181959326171875
6.70138309472767,0.0430956298828125,10.0317049560547,-0.167594116210937
6.70404444346899,0.05746083984375,10.0173397460938,-0.143652099609375
6.7067057922103,0.0143652099609375,10.0412817626953,-0.205901342773437
6.70936714095162,0.0143652099609375,10.0221281494141,-0.158017309570312
6.72076128648659,0.028730419921875,9.99339772949219,-0.100556469726563
6.73215543202155,0.009576806640625,10.036493359375,-0.129286889648437
6.74354957755651,0.0526724365234375,10.0173397460938,-0.0814028564453125
6.75091470841589,0.0,9.97424411621094,0.0239420166015625
6.75827983927526,0.0047884033203125,9.96466730957031,-0.028730419921875
6.76564497013464,0.0143652099609375,9.96945571289062,-0.0622492431640625
6.76806709649097,-0.0047884033203125,9.99339772949219,-0.0335188232421875
6.7704892228473,-0.009576806640625,9.99339772949219,-0.105344873046875
6.77291134920363,-0.009576806640625,9.99339772949219,-0.119710083007812
6.77533380789262,0.0143652099609375,9.98382092285156,-0.110133276367187
6.77775626658161,0.0239420166015625,10.0125513427734,-0.105344873046875
6.7801787252706,-0.01915361328125,9.95030209960937,-0.129286889648437
6.78260242290394,0.0143652099609375,9.98382092285156,-0.09576806640625
6.78502612053728,0.0430956298828125,10.0029745361328,-0.138863696289063
6.78744981817062,0.0383072265625,9.98382092285156,-0.148440502929687
6.78987486759553,0.009576806640625,10.0077629394531,-0.124498486328125
6.79229991702045,0.01915361328125,9.97903251953125,-0.143652099609375
6.79472496644536,0.0047884033203125,10.0173397460938,-0.138863696289063
6.79738019166358,0.0239420166015625,9.9981861328125,-0.0909796630859375
6.8000354168818,-0.0047884033203125,9.98860932617187,-0.1149216796875
6.80269064210001,0.0143652099609375,9.97903251953125,-0.0622492431640625
6.80534852260372,0.0335188232421875,9.99339772949219,-0.0718260498046875
6.80800640310743,0.0383072265625,9.97424411621094,-0.0335188232421875
6.81066428361114,-0.009576806640625,9.96945571289062,-0.129286889648437
6.81332775485679,0.0,9.98860932617187,-0.0047884033203125
6.81599122610245,0.0047884033203125,9.99339772949219,-0.0383072265625
6.8186546973481,0.028730419921875,9.97424411621094,-0.0143652099609375
6.82132089716364,0.01915361328125,9.95987890625,0.05746083984375
6.82398709697918,0.0814028564453125,9.94551369628906,0.047884033203125
6.82665329679472,0.009576806640625,10.0029745361328,0.0383072265625
6.82928517944446,0.0383072265625,9.95509050292969,0.047884033203125
6.8319170620942,0.05746083984375,9.97424411621094,0.0047884033203125
6.83454894474394,0.0526724365234375,9.95509050292969,0.01915361328125
6.83714586482857,0.05746083984375,9.96466730957031,-0.0430956298828125
6.83974278491321,0.0335188232421875,9.96466730957031,0.0
6.84233970499785,0.047884033203125,9.96466730957031,-0.0622492431640625
6.85011883998049,0.047884033203125,9.94551369628906,0.01915361328125
6.85789797496314,0.0909796630859375,9.97903251953125,-0.028730419921875
6.86567710994579,0.0383072265625,9.96466730957031,0.028730419921875
6.8736298952648,0.0335188232421875,9.99339772949219,-0.076614453125
6.88158268058382,-0.0143652099609375,9.95030209960937,-0.100556469726563
6.88953546590283,0.0335188232421875,9.95030209960937,-0.028730419921875
6.89211520179692,0.01915361328125,9.97903251953125,-0.076614453125
6.89469493769102,0.0430956298828125,9.95987890625,-0.0718260498046875
6.89727467358511,0.0047884033203125,9.96466730957031,-0.0383072265625
6.89984883070316,0.0526724365234375,9.95987890625,-0.105344873046875
6.90242298782121,0.0335188232421875,9.95030209960937,-0.067037646484375
6.90499714493927,0.01915361328125,9.97903251953125,-0.0814028564453125
6.90757077134986,0.0814028564453125,9.96945571289062,-0.0622492431640625
6.91014439776045,0.0383072265625,9.95030209960937,-0.086191259765625
6.91271802417105,0.0335188232421875,9.96945571289062,-0.09576806640625
6.91529165806861,0.076614453125,10.0317049560547,-0.129286889648437
6.91786529196618,-0.01915361328125,10.0077629394531,-0.05746083984375
6.92043892586374,0.009576806640625,10.0077629394531,-0.158017309570312
6.92301302937937,0.0526724365234375,9.98860932617187,-0.105344873046875
6.925587132895,0.0335188232421875,10.0125513427734,-0.0622492431640625
6.92816123641062,0.028730419921875,9.9981861328125,-0.100556469726563
6.93073547642798,0.05746083984375,10.0173397460938,-0.105344873046875
6.93330971644534,0.01915361328125,10.0029745361328,-0.13407529296875
6.9358839564627,0.0239420166015625,10.0029745361328,-0.0718260498046875
6.94219047121963,0.05746083984375,10.0269165527344,-0.100556469726563
6.94849698597657,0.047884033203125,10.0412817626953,-0.1149216796875
6.95480350073351,0.076614453125,10.0269165527344,-0.047884033203125
6.95707307647136,0.076614453125,9.99339772949219,-0.0814028564453125
6.95934265220921,0.0526724365234375,10.0412817626953,-0.1149216796875
6.96161222794706,0.05746083984375,10.0460701660156,-0.138863696289063
6.96387848261286,0.0718260498046875,10.0077629394531,-0.167594116210937
6.96614473727865,0.0335188232421875,10.0077629394531,-0.17238251953125
6.96841099194445,0.0526724365234375,10.0125513427734,-0.17238251953125
6.97067583211373,0.0430956298828125,9.99339772949219,-0.186747729492187
6.972940672283,0.0622492431640625,9.9981861328125,-0.215478149414062
6.97520551245228,0.0718260498046875,10.0269165527344,-0.167594116210937
6.97747029348527,0.028730419921875,9.99339772949219,-0.158017309570312
6.97973507451826,0.0430956298828125,10.0125513427734,-0.177170922851562
6.98199985555124,0.0430956298828125,10.036493359375,-0.1149216796875
6.98434461944013,0.0430956298828125,10.0317049560547,-0.100556469726563
6.98668938332901,0.028730419921875,10.036493359375,-0.167594116210937
6.9890341472179,0.0239420166015625,10.0029745361328,-0.1149216796875
6.99138214786894,0.0047884033203125,10.0556469726563,-0.177170922851562
6.99373014851998,0.028730419921875,10.0173397460938,-0.196324536132812
6.99607814917102,0.0143652099609375,10.0173397460938,-0.119710083007812
6.9984308384207,0.0143652099609375,10.0221281494141,-0.0430956298828125
7.00078352767038,0.0047884033203125,9.97903251953125,-0.0622492431640625
7.00313621692005,0.0,10.0317049560547,-0.110133276367187
7.00549054272572,-0.0430956298828125,10.0173397460938,-0.09576806640625
7.00784486853138,-0.01915361328125,9.96945571289062,-0.0622492431640625
7.01019919433704,0.009576806640625,9.96945571289062,-0.110133276367187
7.01255446275429,0.0,9.96466730957031,-0.110133276367187
7.01490973117153,-0.01915361328125,9.94072529296875,-0.076614453125
7.01726499958878,-0.0239420166015625,9.97424411621094,-0.09576806640625
7.01962121721754,-0.009576806640625,9.95030209960937,-0.0239420166015625
7.02197743484631,0.01915361328125,9.96466730957031,-0.028730419921875
7.02433365247507,0.01915361328125,9.93593688964844,-0.0047884033203125
7.02669081171986,-0.009576806640625,9.93114848632812,-0.01915361328125
7.02904797096464,-0.009576806640625,9.95987890625,0.0
7.03140513020943,0.028730419921875,9.96466730957031,0.0143652099609375
7.03752712951317,0.047884033203125,9.99339772949219,-0.143652099609375
7.04364912881691,0.0526724365234375,10.0077629394531,-0.067037646484375
7.04977112812065,0.0143652099609375,10.0029745361328,-0.09576806640625
7.05226112387441,0.0814028564453125,10.0221281494141,-0.162805712890625
7.05475111962818,0.05746083984375,10.0221281494141,-0.110133276367187
7.05724111538194,0.0718260498046875,10.0317049560547,-0.086191259765625
7.05973235678819,0.0383072265625,9.98860932617187,-0.162805712890625
7.06222359819444,0.0383072265625,10.0317049560547,-0.100556469726563
7.06471483960069,0.047884033203125,10.0029745361328,-0.105344873046875
7.06720740470486,0.067037646484375,10.0029745361328,-0.047884033203125
7.06969996980903,0.047884033203125,10.0125513427734,-0.05746083984375
7.07219253491319,0.0430956298828125,10.0412817626953,-0.0814028564453125
7.07468321687934,0.047884033203125,9.9981861328125,-0.100556469726563
7.07717389884549,0.009576806640625,9.97903251953125,-0.1149216796875
7.07966458081165,0.0239420166015625,9.99339772949219,0.0143652099609375
7.08215500670141,0.124498486328125,9.9981861328125,-0.0047884033203125
7.08464543259117,0.067037646484375,9.99339772949219,-0.0239420166015625
7.08713585848093,0.047884033203125,9.96466730957031,-0.01915361328125
7.09479266368384,0.0622492431640625,9.94551369628906,-0.0622492431640625
7.10244946888675,0.076614453125,9.96466730957031,-0.01915361328125
7.11010627408966,0.0814028564453125,9.93114848632812,-0.09576806640625
7.11268595274634,0.105344873046875,9.95030209960937,-0.0526724365234375
7.11526563140302,0.067037646484375,9.95509050292969,0.0
7.11784531005971,0.067037646484375,9.95987890625,-0.047884033203125
7.12042600227976,0.0622492431640625,9.97424411621094,0.0143652099609375
7.12300669449981,0.047884033203125,9.96945571289062,0.0
7.12558738671986,0.086191259765625,9.95030209960937,0.0047884033203125
7.12816810140085,0.0718260498046875,9.94072529296875,0.009576806640625
7.13074881608183,0.076614453125,9.97424411621094,0.0239420166015625
7.13332953076282,0.0814028564453125,9.96945571289062,0.009576806640625
7.13587617100805,0.0622492431640625,9.98860932617187,0.086191259765625
7.13842281125328,0.05746083984375,9.99339772949219,0.086191259765625
7.14096945149851,0.076614453125,9.99339772949219,0.076614453125
7.14362349354495,0.0526724365234375,10.0125513427734,0.0622492431640625
7.14627753559139,0.076614453125,10.0221281494141,-0.01915361328125
7.14893157763784,0.076614453125,9.98382092285156,0.0814028564453125
7.15166187961267,0.13407529296875,10.0173397460938,0.028730419921875
7.15439218158749,0.0909796630859375,10.0269165527344,-0.0430956298828125
7.15712248356232,0.09576806640625,10.0556469726563,-0.0430956298828125
7.16394607025937,0.143652099609375,10.0460701660156,0.028730419921875
7.17076965695642,0.105344873046875,10.0460701660156,0.009576806640625
7.17759324365347,0.13407529296875,10.036493359375,0.110133276367187
7.18025381711267,0.13407529296875,9.9981861328125,0.119710083007812
7.18291439057188,0.105344873046875,10.0604353759766,0.0430956298828125
7.18557496403108,0.129286889648437,10.0029745361328,0.0239420166015625
7.18823483436529,0.100556469726563,9.9981861328125,-0.009576806640625
7.19089470469949,0.110133276367187,9.9981861328125,-0.009576806640625
7.19355457503369,0.0909796630859375,9.98382092285156,-0.0622492431640625
7.19621457535922,0.076614453125,9.93593688964844,0.0
7.19887457568474,0.105344873046875,9.99339772949219,-0.0383072265625
7.20153457601027,0.100556469726563,10.0077629394531,0.009576806640625
7.20419462158318,0.110133276367187,9.96466730957031,0.0
7.2068546671561,0.1149216796875,9.96466730957031,-0.0047884033203125
7.20951471272901,0.1149216796875,10.0221281494141,0.0047884033203125
7.21829579771708,0.100556469726563,10.0077629394531,0.1149216796875
7.22707688270516,0.0814028564453125,10.0077629394531,0.110133276367187
7.23585796769323,0.0526724365234375,9.96466730957031,0.009576806640625
7.24320166848532,0.047884033203125,10.0125513427734,0.0
7.25054536927742,0.047884033203125,9.98382092285156,-0.0239420166015625
7.25788907006952,0.086191259765625,9.97903251953125,-0.0909796630859375
7.26038857679694,0.05746083984375,10.0077629394531,0.0
7.26288808352437,0.0622492431640625,9.97903251953125,-0.0335188232421875
7.2653875902518,0.076614453125,9.95509050292969,-0.01915361328125
7.26788837755106,0.0430956298828125,9.96466730957031,-0.0526724365234375
7.27038916485032,0.0814028564453125,9.98382092285156,-0.05746083984375
7.27288995214958,0.0526724365234375,9.96466730957031,-0.0430956298828125
7.2753915544445,0.076614453125,9.96945571289062,-0.110133276367187
7.27789315673942,0.05746083984375,9.98860932617187,-0.0622492431640625
7.28039475903434,0.0526724365234375,9.92636008300781,-0.105344873046875
7.28289730786246,0.0526724365234375,9.93593688964844,-0.05746083984375
7.28539985669059,0.0814028564453125,9.93593688964844,-0.1149216796875
7.28790240551872,0.100556469726563,9.93593688964844,-0.086191259765625
7.29038618339415,0.0814028564453125,9.95509050292969,-0.067037646484375
7.29286996126959,0.119710083007812,9.93114848632812,-0.0909796630859375
7.29535373914502,0.105344873046875,9.96945571289062,-0.05746083984375
7.29781197212028,0.105344873046875,9.94072529296875,-0.076614453125
7.30027020509555,0.138863696289063,9.98382092285156,-0.067037646484375
7.30272843807082,0.076614453125,9.94551369628906,-0.0622492431640625
7.30892919782017,0.105344873046875,10.0029745361328,-0.0383072265625
7.31512995756953,0.0622492431640625,10.0317049560547,0.0718260498046875
7.32133071731889,0.0909796630859375,10.0173397460938,0.0909796630859375
7.32383262420908,0.086191259765625,10.0077629394531,0.0430956298828125
7.32633453109927,0.09576806640625,10.0173397460938,0.067037646484375
7.32883643798946,0.067037646484375,9.98382092285156,0.0718260498046875
7.33133900238833,0.0383072265625,10.0029745361328,0.09576806640625
7.3338415667872,0.09576806640625,9.9981861328125,0.086191259765625
7.33634413118607,0.110133276367187,10.0221281494141,0.105344873046875
7.33885314333885,0.067037646484375,9.96466730957031,0.05746083984375
7.34136215549163,0.0383072265625,9.97903251953125,0.0718260498046875
7.34387116764442,0.0622492431640625,9.98382092285156,0.0526724365234375
7.34638084906803,0.0622492431640625,9.94072529296875,0.047884033203125
7.34889053049164,0.076614453125,9.95509050292969,0.067037646484375
7.35140021191526,0.0383072265625,9.95987890625,0.05746083984375
7.35404686257715,0.0430956298828125,9.93593688964844,0.067037646484375
7.35669351323905,0.067037646484375,9.93593688964844,0.076614453125
7.35934016390095,0.09576806640625,9.92636008300781,0.009576806640625
7.36191544178723,0.0383072265625,9.90720646972656,-0.009576806640625
7.36449071967351,0.05746083984375,9.89284125976562,0.0239420166015625
7.3670659975598,0.0383072265625,9.93114848632812,0.01915361328125
7.36956723334539,0.0814028564453125,9.90241806640625,0.01915361328125
7.37206846913097,0.0383072265625,9.87368764648437,-0.0047884033203125
7.37456970491656,0.067037646484375,9.88805285644531,-0.01915361328125
7.37706844639876,0.129286889648437,9.94072529296875,-0.067037646484375
7.37956718788097,0.086191259765625,9.94072529296875,-0.0526724365234375
7.38206592936317,0.0909796630859375,9.93114848632812,0.0
7.38471214729937,0.105344873046875,9.93114848632812,-0.0335188232421875
7.38735836523558,0.0622492431640625,9.97903251953125,-0.009576806640625
7.39000458317178,0.119710083007812,9.94072529296875,-0.0047884033203125
7.39265243598211,0.09576806640625,9.98382092285156,-0.0143652099609375
7.39530028879244,0.067037646484375,10.0125513427734,0.0383072265625
7.39794814160278,0.0718260498046875,9.96945571289062,-0.028730419921875
7.40059676964097,0.0718260498046875,9.9981861328125,0.009576806640625
7.40324539767916,0.0909796630859375,9.95987890625,0.0239420166015625
