timestamp,accel_x (m/s2),accel_y (m/s2),accel_z (m/s2)
0.00283091590711611,0.0526724365234375,9.94072529296875,-0.598550415039062
0.00566183181423222,0.047884033203125,9.96466730957031,-0.612915625
0.00849274772134834,0.028730419921875,9.98860932617187,-0.694318481445312
0.0141611371527735,0.086191259765625,9.97424411621094,-0.6512228515625
0.0198295265841987,0.067037646484375,9.99339772949219,-0.689530078125
0.0254979160156239,0.0718260498046875,10.0556469726563,-0.660799658203125
0.0311705980902796,0.047884033203125,10.0125513427734,-0.656011254882812
0.0368432801649353,0.0622492431640625,10.036493359375,-0.636857641601562
0.042515962239591,0.0718260498046875,10.0269165527344,-0.584185205078125
0.0482570154079885,0.0909796630859375,10.0221281494141,-0.565031591796875
0.053998068576386,0.119710083007812,10.0125513427734,-0.531512768554687
0.0597391217447836,0.076614453125,9.98382092285156,-0.541089575195312
0.0655575078124902,0.076614453125,10.0029745361328,-0.545877978515625
0.0713758938801969,0.124498486328125,9.97424411621094,-0.5746083984375
0.0771942799479035,0.0718260498046875,9.97424411621094,-0.541089575195312
0.0830161387803656,0.0622492431640625,9.97903251953125,-0.569819995117188
0.0888379976128277,0.076614453125,9.97424411621094,-0.536301171875
0.0946598564452898,0.0718260498046875,9.97903251953125,-0.622492431640625
0.100484250759521,0.0718260498046875,9.94072529296875,-0.5746083984375
0.106308645073753,0.01915361328125,9.98860932617187,-0.541089575195312
0.112133039387984,0.0239420166015625,9.94072529296875,-0.636857641601562
0.117960588433121,0.0143652099609375,9.95509050292969,-0.5746083984375
0.123788137478257,0.009576806640625,9.94551369628906,-0.646434448242187
0.129615686523394,0.0383072265625,9.95030209960937,-0.550666381835937
0.135446256510368,0.0430956298828125,9.95987890625,-0.4979939453125
0.141276826497342,0.01915361328125,9.96466730957031,-0.550666381835937
0.147107396484316,0.0143652099609375,9.92636008300781,-0.584185205078125
0.152939727430497,0.047884033203125,9.94551369628906,-0.47884033203125
0.158772058376679,0.047884033203125,9.97903251953125,-0.550666381835937
0.164604389322861,0.0383072265625,9.95987890625,-0.474051928710937
0.179571903455894,0.01915361328125,9.94072529296875,-0.59376201171875
0.194539417588928,0.009576806640625,9.91678327636719,-0.5746083984375
0.209506931721961,0.0430956298828125,9.91678327636719,-0.579396801757812
0.215566707980637,0.0430956298828125,9.96945571289062,-0.5746083984375
0.221626484239313,0.047884033203125,9.93593688964844,-0.608127221679687
0.22768626049799,0.0526724365234375,9.95030209960937,-0.569819995117188
0.233750343722818,0.05746083984375,9.97424411621094,-0.550666381835937
0.239814426947646,0.0526724365234375,9.95030209960937,-0.531512768554687
0.245878510172474,0.119710083007812,9.9215716796875,-0.5746083984375
0.251946744764486,0.0526724365234375,9.98860932617187,-0.55545478515625
0.258014979356498,0.0622492431640625,9.96945571289062,-0.656011254882812
0.26408321394851,0.086191259765625,9.94072529296875,-0.627280834960937
0.27037009111865,0.0909796630859375,9.97903251953125,-0.617704028320312
0.27665696828879,0.0909796630859375,9.96466730957031,-0.6512228515625
0.282943845458931,0.076614453125,9.95509050292969,-0.622492431640625
0.289233480550071,0.076614453125,9.97903251953125,-0.560243188476563
0.295523115641212,0.067037646484375,9.98860932617187,-0.598550415039062
0.301812750732353,0.0718260498046875,9.99339772949219,-0.545877978515625
0.308104922715861,0.0814028564453125,9.96945571289062,-0.603338818359375
0.314397094699369,0.105344873046875,9.96466730957031,-0.541089575195312
0.320689266682876,0.0526724365234375,9.94551369628906,-0.565031591796875
0.352156531873855,0.0718260498046875,10.0077629394531,-0.541089575195312
0.383623797064833,0.129286889648437,9.98382092285156,-0.569819995117188
0.415091062255811,0.162805712890625,9.96466730957031,-0.665588061523437
0.4213870933973,0.105344873046875,9.94551369628906,-0.550666381835937
0.427683124538788,0.138863696289063,9.95987890625,-0.612915625
0.433979155680277,0.100556469726563,9.91678327636719,-0.612915625
0.440277395480621,0.129286889648437,9.95030209960937,-0.526724365234375
0.446575635280965,0.105344873046875,9.95030209960937,-0.5746083984375
0.452873875081309,0.124498486328125,9.98860932617187,-0.59376201171875
0.459173597629047,0.09576806640625,9.98382092285156,-0.569819995117188
0.465473320176784,0.086191259765625,9.96945571289062,-0.560243188476563
0.471773042724521,0.110133276367187,9.95509050292969,-0.584185205078125
0.513551065131182,0.13407529296875,9.97424411621094,-0.608127221679687
0.555329087537842,0.143652099609375,9.9981861328125,-0.550666381835937
0.597107109944503,0.138863696289063,9.96466730957031,-0.545877978515625
0.603633875135477,0.158017309570312,9.96466730957031,-0.603338818359375
0.610160640326451,0.110133276367187,9.95509050292969,-0.569819995117188
0.616687405517425,0.138863696289063,9.96945571289062,-0.569819995117188
0.623217993516557,0.086191259765625,9.93114848632812,-0.4979939453125
0.629748581515689,0.124498486328125,9.98382092285156,-0.526724365234375
0.636279169514822,0.148440502929687,9.9215716796875,-0.55545478515625
0.642815992105971,0.110133276367187,9.96466730957031,-0.584185205078125
0.64935281469712,0.124498486328125,9.94551369628906,-0.641646044921875
0.655889637288269,0.1149216796875,9.94072529296875,-0.569819995117188
0.662429339436703,0.100556469726563,9.92636008300781,-0.569819995117188
0.668969041585138,0.1149216796875,9.9215716796875,-0.531512768554687
0.675508743733573,0.0814028564453125,9.93114848632812,-0.512359155273437
0.682050040283054,0.105344873046875,9.94551369628906,-0.55545478515625
0.688591336832535,0.05746083984375,9.95987890625,-0.55545478515625
0.695132633382016,0.100556469726563,9.96466730957031,-0.502782348632812
0.70167541484903,0.0718260498046875,9.95509050292969,-0.526724365234375
0.708218196316044,0.1149216796875,9.95030209960937,-0.51714755859375
0.714760977783058,0.086191259765625,9.95030209960937,-0.502782348632812
0.747644223659795,0.129286889648437,9.93593688964844,-0.464475122070312
0.780527469536532,0.100556469726563,9.95987890625,-0.493205541992187
0.813410715413269,0.086191259765625,9.98860932617187,-0.430956298828125
0.82001245727525,0.138863696289063,9.94551369628906,-0.45968671875
0.82661419913723,0.13407529296875,10.0125513427734,-0.454898315429687
0.83321594099921,0.158017309570312,9.94072529296875,-0.430956298828125
0.839819893907195,0.124498486328125,9.96945571289062,-0.416591088867187
0.84642384681518,0.1149216796875,9.97424411621094,-0.368707055664062
0.853027799723165,0.09576806640625,9.95030209960937,-0.368707055664062
0.85963366636813,0.124498486328125,9.97903251953125,-0.40222587890625
0.866239533013096,0.105344873046875,9.97903251953125,-0.45968671875
0.872845399658061,0.124498486328125,9.96466730957031,-0.493205541992187
0.879452777587749,0.119710083007812,9.98382092285156,-0.47884033203125
0.886060155517436,0.105344873046875,9.94072529296875,-0.565031591796875
0.892667533447124,0.0814028564453125,9.98382092285156,-0.474051928710937
0.899344880343823,0.0814028564453125,10.0029745361328,-0.51714755859375
0.906022227240522,0.0909796630859375,9.9981861328125,-0.531512768554687
0.912699574137221,0.100556469726563,9.94551369628906,-0.545877978515625
0.919379276177149,0.067037646484375,10.0125513427734,-0.531512768554687
0.926058978217076,0.100556469726563,10.0029745361328,-0.51714755859375
0.932738680257003,0.110133276367187,10.0077629394531,-0.521935961914062
0.939420016520022,0.0909796630859375,9.98382092285156,-0.488417138671875
0.946101352783041,0.086191259765625,9.96466730957031,-0.565031591796875
0.95278268904606,0.076614453125,10.0269165527344,-0.541089575195312
0.959466233533907,0.076614453125,10.0029745361328,-0.4979939453125
0.966149778021754,0.0814028564453125,10.0029745361328,-0.512359155273437
0.972833322509601,0.05746083984375,9.98382092285156,-0.435744702148437
0.979744989067764,0.086191259765625,10.0125513427734,-0.416591088867187
0.986656655625926,0.0814028564453125,9.98860932617187,-0.4979939453125
0.993568322184089,0.0622492431640625,9.98382092285156,-0.474051928710937
1.00048626955822,0.0718260498046875,9.98860932617187,-0.521935961914062
1.00740421693235,0.067037646484375,9.94551369628906,-0.507570751953125
1.01432216430648,0.0718260498046875,9.96945571289062,-0.469263525390625
1.02124450154606,0.0239420166015625,9.98382092285156,-0.541089575195312
1.02816683878565,0.0526724365234375,9.98860932617187,-0.550666381835937
1.03508917602524,0.0239420166015625,9.96466730957031,-0.579396801757812
1.04201612177177,0.05746083984375,9.99339772949219,-0.545877978515625
1.04894306751829,0.067037646484375,9.97903251953125,-0.59376201171875
1.05587001326482,0.05746083984375,9.95987890625,-0.636857641601562
1.06279971432819,0.067037646484375,9.98860932617187,-0.646434448242187
1.06972941539156,0.124498486328125,9.98860932617187,-0.612915625
1.07665911645493,0.110133276367187,9.97424411621094,-0.565031591796875
1.08359037806517,0.05746083984375,9.95509050292969,-0.579396801757812
1.09052163967541,0.09576806640625,9.95030209960937,-0.612915625
1.09745290128565,0.0814028564453125,9.95987890625,-0.5746083984375
1.10438565540891,0.05746083984375,9.97424411621094,-0.608127221679687
1.11131840953218,0.0909796630859375,10.0029745361328,-0.569819995117188
1.11825116365544,0.076614453125,9.98382092285156,-0.579396801757812
1.15656708607297,0.028730419921875,9.98860932617187,-0.536301171875
1.1948830084905,0.067037646484375,9.9981861328125,-0.569819995117188
1.23319893090802,0.0383072265625,10.0317049560547,-0.588973608398437
1.24019145629865,0.047884033203125,9.95987890625,-0.569819995117188
1.24718398168927,0.0622492431640625,9.96466730957031,-0.579396801757812
1.2541765070799,0.028730419921875,10.0173397460938,-0.55545478515625
1.26117120705819,0.076614453125,9.98382092285156,-0.521935961914062
1.26816590703648,0.047884033203125,10.0317049560547,-0.569819995117188
1.27516060701478,0.05746083984375,9.97424411621094,-0.488417138671875
1.28215692418058,0.067037646484375,9.98860932617187,-0.51714755859375
1.28915324134638,0.0430956298828125,9.98860932617187,-0.454898315429687
1.29614955851218,0.0,9.97424411621094,-0.536301171875
1.30314735614673,0.05746083984375,9.92636008300781,-0.51714755859375
1.31014515378128,0.0718260498046875,9.95987890625,-0.454898315429687
1.31714295141582,0.028730419921875,9.97903251953125,-0.47884033203125
1.32429059996183,0.076614453125,9.94072529296875,-0.51714755859375
1.33143824850784,0.0718260498046875,9.95987890625,-0.55545478515625
1.33858589705385,0.028730419921875,9.95987890625,-0.526724365234375
1.34573585907642,0.0383072265625,9.98382092285156,-0.4979939453125
1.35288582109899,0.100556469726563,9.96466730957031,-0.474051928710937
1.36003578312155,0.0335188232421875,9.98860932617187,-0.502782348632812
1.36718734507902,0.0,9.97903251953125,-0.483628735351562
1.37433890703648,0.028730419921875,9.95030209960937,-0.493205541992187
1.38149046899394,0.047884033203125,9.96466730957031,-0.541089575195312
1.38864352834724,0.0383072265625,9.96945571289062,-0.474051928710937
1.39579658770054,0.0526724365234375,9.94551369628906,-0.45968671875
1.40294964705384,0.0239420166015625,9.94551369628906,-0.47884033203125
1.4101042512205,0.0526724365234375,9.92636008300781,-0.545877978515625
1.41725885538717,0.0430956298828125,9.95509050292969,-0.502782348632812
1.42441345955384,0.05746083984375,9.97903251953125,-0.51714755859375
1.43156954972311,0.067037646484375,9.95030209960937,-0.469263525390625
1.43872563989237,0.05746083984375,9.93593688964844,-0.4213794921875
1.44588173006164,0.0430956298828125,9.95509050292969,-0.47884033203125
1.45303929234462,0.047884033203125,9.97424411621094,-0.44053310546875
1.46019685462761,0.067037646484375,9.95030209960937,-0.469263525390625
1.4673544169106,0.076614453125,9.92636008300781,-0.45968671875
1.48563764615865,0.067037646484375,9.95509050292969,-0.430956298828125
1.50392087540669,0.076614453125,9.95030209960937,-0.407014282226562
1.52220410465473,0.0622492431640625,9.98382092285156,-0.493205541992187
1.52958663297505,0.105344873046875,9.95509050292969,-0.454898315429687
1.53696916129536,0.0909796630859375,9.95030209960937,-0.493205541992187
1.54435168961568,0.110133276367187,9.95987890625,-0.464475122070312
1.55181003260613,0.086191259765625,9.9215716796875,-0.47884033203125
1.55926837559657,0.0814028564453125,9.96466730957031,-0.4979939453125
1.56672671858702,0.086191259765625,9.97424411621094,-0.531512768554687
1.57418750862608,0.076614453125,10.0029745361328,-0.483628735351562
1.58164829866514,0.076614453125,9.96466730957031,-0.507570751953125
1.58910908870421,0.0909796630859375,9.97903251953125,-0.521935961914062
1.59657168104361,0.100556469726563,9.98382092285156,-0.545877978515625
1.60403427338302,0.100556469726563,9.98382092285156,-0.521935961914062
1.61149686572243,0.076614453125,9.99339772949219,-0.507570751953125
1.61896150569639,0.0622492431640625,10.0125513427734,-0.560243188476563
1.62642614567035,0.05746083984375,9.98860932617187,-0.488417138671875
1.63389078564431,0.076614453125,9.96945571289062,-0.526724365234375
1.64135716086133,0.0622492431640625,10.0173397460938,-0.493205541992187
1.64882353607834,0.0718260498046875,9.97424411621094,-0.4979939453125
1.65628991129536,0.047884033203125,9.95030209960937,-0.502782348632812
1.69362631309656,0.0335188232421875,10.0029745361328,-0.4979939453125
1.73096271489777,0.076614453125,9.94072529296875,-0.454898315429687
1.76829911669897,0.047884033203125,9.96466730957031,-0.469263525390625
1.77576862885175,0.0526724365234375,10.0029745361328,-0.426167895507812
1.78323814100452,0.067037646484375,10.0029745361328,-0.435744702148437
1.7907076531573,0.0383072265625,10.0125513427734,-0.40222587890625
1.80963931776233,0.076614453125,9.94551369628906,-0.416591088867187
1.82857098236735,0.09576806640625,9.93593688964844,-0.450109912109375
1.84750264697238,0.0814028564453125,9.94072529296875,-0.383072265625
1.85512520741074,0.0909796630859375,9.94072529296875,-0.330399829101562
1.86274776784911,0.076614453125,9.92636008300781,-0.354341845703125
1.87037032828747,0.0430956298828125,9.94551369628906,-0.416591088867187
1.87799494037514,0.0335188232421875,9.95509050292969,-0.526724365234375
1.88561955246282,0.0526724365234375,9.95509050292969,-0.47884033203125
1.89324416455049,0.0383072265625,9.96945571289062,-0.59376201171875
1.90087034261038,0.0814028564453125,9.94072529296875,-0.541089575195312
1.90849652067028,0.076614453125,9.97424411621094,-0.569819995117188
1.91612269873017,0.0526724365234375,9.90241806640625,-0.560243188476563
1.9237503961043,0.028730419921875,9.93593688964844,-0.550666381835937
1.93137809347843,0.009576806640625,9.95987890625,-0.612915625
1.93900579085255,0.0718260498046875,9.95030209960937,-0.502782348632812
1.94663496945498,0.0383072265625,9.96945571289062,-0.512359155273437
1.95426414805741,0.076614453125,9.95030209960937,-0.464475122070312
1.96189332665984,0.067037646484375,9.98382092285156,-0.507570751953125
1.98506432731088,0.076614453125,9.95509050292969,-0.4213794921875
2.00823532796191,0.09576806640625,9.94072529296875,-0.483628735351562
2.03140632861295,0.067037646484375,9.95509050292969,-0.4979939453125
2.03941246630827,0.124498486328125,9.94551369628906,-0.493205541992187
2.04741860400358,0.05746083984375,9.96945571289062,-0.469263525390625
2.05542474169889,0.105344873046875,9.95987890625,-0.435744702148437
2.06343980799663,0.067037646484375,9.95987890625,-0.383072265625
2.07145487429437,0.100556469726563,9.97424411621094,-0.349553442382812
2.07946994059211,0.143652099609375,9.95509050292969,-0.349553442382812
2.08748730235426,0.158017309570312,10.0077629394531,-0.416591088867187
2.09550466411642,0.0814028564453125,9.95509050292969,-0.435744702148437
2.10352202587857,0.086191259765625,9.94551369628906,-0.47884033203125
2.11154098779263,0.076614453125,9.95030209960937,-0.536301171875
2.1195599497067,0.086191259765625,9.95509050292969,-0.55545478515625
2.12757891162077,0.129286889648437,9.94551369628906,-0.598550415039062
2.13559941585254,0.13407529296875,9.95030209960937,-0.569819995117188
2.14361992008431,0.110133276367187,9.92636008300781,-0.569819995117188
2.15164042431608,0.148440502929687,9.96945571289062,-0.569819995117188
2.17570488623014,0.13407529296875,10.0269165527344,-0.51714755859375
2.19976934814421,0.13407529296875,9.95509050292969,-0.4979939453125
2.22383381005827,0.129286889648437,9.98860932617187,-0.565031591796875
2.23185760617373,0.13407529296875,10.0125513427734,-0.550666381835937
2.23988140228918,0.13407529296875,9.99339772949219,-0.5746083984375
2.24790519840463,0.119710083007812,9.99339772949219,-0.493205541992187
2.30833759893091,0.05746083984375,9.93114848632812,-0.450109912109375
2.36876999945718,0.067037646484375,9.9215716796875,-0.483628735351562
2.42920239998346,0.0814028564453125,9.93593688964844,-0.47884033203125
2.43728964520915,0.0622492431640625,9.93593688964844,-0.464475122070312
2.44537689043484,0.0526724365234375,9.96945571289062,-0.416591088867187
2.45346413566053,0.0430956298828125,9.94551369628906,-0.426167895507812
2.46155460972737,0.0526724365234375,9.95987890625,-0.454898315429687
2.46964508379421,0.0239420166015625,9.92636008300781,-0.474051928710937
2.47773555786105,0.028730419921875,9.94072529296875,-0.411802685546875
2.48583100762233,0.0430956298828125,9.97424411621094,-0.464475122070312
2.49392645738361,0.0239420166015625,9.97903251953125,-0.44053310546875
2.50202190714489,0.0239420166015625,9.93593688964844,-0.454898315429687
2.51011976684541,0.0335188232421875,9.98860932617187,-0.469263525390625
2.51821762654593,0.0239420166015625,9.97903251953125,-0.45968671875
2.52631548624645,0.0335188232421875,9.98382092285156,-0.411802685546875
2.53455553279593,0.0047884033203125,9.9981861328125,-0.469263525390625
2.5427955793454,0.01915361328125,9.98860932617187,-0.378283862304687
2.55103562589488,0.028730419921875,9.94072529296875,-0.407014282226562
2.55927819316918,0.0239420166015625,9.97903251953125,-0.45968671875
2.56752076044348,-0.0239420166015625,9.99339772949219,-0.392649072265625
2.57576332771779,0.01915361328125,9.9981861328125,-0.411802685546875
2.58400811233151,0.047884033203125,9.98382092285156,-0.397437475585937
2.59225289694522,-0.028730419921875,9.97903251953125,-0.40222587890625
2.60049768155894,0.0526724365234375,9.94072529296875,-0.359130249023437
2.60874427932369,0.0047884033203125,9.97903251953125,-0.407014282226562
2.61699087708845,0.0622492431640625,9.91199487304687,-0.392649072265625
2.6252374748532,0.028730419921875,9.93593688964844,-0.387860668945312
2.63348557760928,0.01915361328125,9.91199487304687,-0.383072265625
2.64173368036535,0.047884033203125,9.95509050292969,-0.349553442382812
2.64998178312143,0.0622492431640625,9.91678327636719,-0.445321508789062
2.65823135169781,0.100556469726563,9.92636008300781,-0.335188232421875
2.6664809202742,0.0814028564453125,9.95987890625,-0.36391865234375
2.67473048885059,0.0622492431640625,9.9215716796875,-0.411802685546875
2.69111933997907,0.047884033203125,9.95987890625,-0.244208569335937
2.70750819110755,0.0526724365234375,9.96945571289062,-0.181959326171875
2.72389704223603,0.047884033203125,9.99339772949219,-0.225054956054687
2.72654636146346,0.0526724365234375,9.96466730957031,-0.2681505859375
2.72919568069089,0.0143652099609375,9.95987890625,-0.354341845703125
2.73184499991832,0.028730419921875,9.96466730957031,-0.359130249023437
2.7344275777178,0.028730419921875,9.95030209960937,-0.469263525390625
2.73701015551728,0.0622492431640625,9.97424411621094,-0.531512768554687
2.73959273331676,0.0526724365234375,9.95987890625,-0.51714755859375
2.7420995573185,0.0814028564453125,9.99339772949219,-0.469263525390625
2.74460638132024,0.09576806640625,9.97424411621094,-0.512359155273437
2.74711320532197,0.124498486328125,9.94072529296875,-0.450109912109375
2.74961809138968,0.076614453125,9.94072529296875,-0.430956298828125
2.75212297745739,0.067037646484375,9.97903251953125,-0.378283862304687
2.75462786352509,0.105344873046875,10.0077629394531,-0.416591088867187
2.75727787773951,0.110133276367187,10.0125513427734,-0.3064578125
2.75992789195392,0.0909796630859375,9.9981861328125,-0.36391865234375
2.76257790616834,0.105344873046875,10.0317049560547,-0.368707055664062
2.76523327552597,0.1149216796875,9.99339772949219,-0.411802685546875
2.76788864488361,0.110133276367187,9.9981861328125,-0.387860668945312
2.77054401424125,0.0718260498046875,9.98382092285156,-0.359130249023437
2.77319959366833,0.100556469726563,9.9981861328125,-0.28730419921875
2.77585517309542,0.0526724365234375,9.98382092285156,-0.301669409179687
2.7785107525225,0.0909796630859375,9.98382092285156,-0.349553442382812
2.78116976022649,0.0526724365234375,9.98860932617187,-0.378283862304687
2.78382876793048,0.0430956298828125,9.93114848632812,-0.426167895507812
2.78648777563448,0.0239420166015625,9.99339772949219,-0.474051928710937
2.78906683410616,0.05746083984375,9.96466730957031,-0.493205541992187
2.79164589257784,0.0143652099609375,9.9981861328125,-0.545877978515625
2.79422495104952,0.047884033203125,10.0508585693359,-0.464475122070312
2.79669506621608,0.0143652099609375,10.0173397460938,-0.47884033203125
2.79916518138264,0.01915361328125,10.0077629394531,-0.51714755859375
2.8016352965492,0.0335188232421875,10.0508585693359,-0.507570751953125
2.80407604703748,0.0143652099609375,10.0508585693359,-0.469263525390625
2.80651679752576,0.0526724365234375,10.0795889892578,-0.44053310546875
2.80895754801404,0.009576806640625,10.0508585693359,-0.430956298828125
2.81527096742051,0.009576806640625,10.0412817626953,-0.36391865234375
2.82158438682697,0.0143652099609375,10.0508585693359,-0.411802685546875
2.82789780623343,0.0,10.0125513427734,-0.392649072265625
2.83024324807371,0.0143652099609375,10.036493359375,-0.450109912109375
2.83258868991398,0.0047884033203125,10.0317049560547,-0.416591088867187
2.83493413175426,0.0047884033203125,10.0125513427734,-0.4979939453125
2.83735417526555,0.0047884033203125,10.0125513427734,-0.588973608398437
2.83977421877684,0.0383072265625,10.0029745361328,-0.507570751953125
2.84219426228812,0.01915361328125,9.96945571289062,-0.63206923828125
2.84461414954941,0.0430956298828125,9.95987890625,-0.608127221679687
2.84703403681069,0.047884033203125,9.97903251953125,-0.5746083984375
2.84945392407197,0.0526724365234375,9.98860932617187,-0.536301171875
2.85187503740747,0.0526724365234375,9.99339772949219,-0.526724365234375
2.85429615074297,0.067037646484375,9.95987890625,-0.44053310546875
2.85671726407847,0.028730419921875,9.99339772949219,-0.483628735351562
2.85913945275396,0.0814028564453125,9.99339772949219,-0.474051928710937
2.86156164142946,0.0335188232421875,10.0269165527344,-0.411802685546875
2.86398383010495,0.0335188232421875,9.96466730957031,-0.430956298828125
2.86640709455446,0.0383072265625,9.94551369628906,-0.4979939453125
2.86883035900397,0.086191259765625,10.0173397460938,-0.536301171875
2.87125362345347,0.076614453125,10.0029745361328,-0.536301171875
2.87731185970022,0.067037646484375,10.036493359375,-0.545877978515625
2.88337009594696,0.0622492431640625,10.0412817626953,-0.5746083984375
2.8894283321937,0.0814028564453125,10.0269165527344,-0.4979939453125
2.89185090451358,0.028730419921875,10.0173397460938,-0.469263525390625
2.89427347683347,0.110133276367187,9.96466730957031,-0.502782348632812
2.89669604915335,0.0335188232421875,10.0077629394531,-0.47884033203125
2.90310915041746,0.0718260498046875,10.0029745361328,-0.483628735351562
2.90952225168158,0.0526724365234375,9.95987890625,-0.526724365234375
2.9159353529457,0.0622492431640625,10.0029745361328,-0.488417138671875
2.91874759771928,0.0239420166015625,9.98860932617187,-0.488417138671875
2.92155984249287,0.0430956298828125,9.95987890625,-0.474051928710937
2.92437208726646,0.067037646484375,9.96945571289062,-0.474051928710937
2.92722615911615,0.086191259765625,9.97424411621094,-0.450109912109375
2.93008023096584,0.086191259765625,9.93593688964844,-0.40222587890625
2.93293430281553,0.0526724365234375,9.98860932617187,-0.44053310546875
2.93582956361197,0.100556469726563,9.98382092285156,-0.407014282226562
2.93872482440842,0.13407529296875,9.96466730957031,-0.4213794921875
2.94162008520487,0.076614453125,9.96466730957031,-0.45968671875
2.94455730024755,0.105344873046875,9.95030209960937,-0.512359155273437
2.94749451529022,0.086191259765625,9.96466730957031,-0.392649072265625
2.9504317303329,0.086191259765625,9.96466730957031,-0.407014282226562
2.95333437499075,0.086191259765625,9.97424411621094,-0.474051928710937
2.9562370196486,0.0909796630859375,9.95509050292969,-0.469263525390625
2.95913966430644,0.09576806640625,9.95987890625,-0.531512768554687
2.96203279424351,0.1149216796875,9.97424411621094,-0.493205541992187
2.96492592418058,0.047884033203125,9.95987890625,-0.4979939453125
2.96781905411765,0.076614453125,10.036493359375,-0.550666381835937
2.98222642000308,0.0622492431640625,9.9981861328125,-0.550666381835937
2.9966337858885,0.119710083007812,9.99339772949219,-0.488417138671875
3.01104115177393,0.0526724365234375,9.9981861328125,-0.488417138671875
3.03373829125961,0.129286889648437,9.95987890625,-0.51714755859375
3.05643543074529,0.09576806640625,9.96466730957031,-0.569819995117188
3.07913257023097,0.129286889648437,9.97903251953125,-0.541089575195312
3.08747127275918,0.0718260498046875,9.98382092285156,-0.445321508789062
3.09580997528739,0.1149216796875,9.96945571289062,-0.493205541992187
3.10414867781559,0.0718260498046875,9.95987890625,-0.502782348632812
3.11225888761376,0.0335188232421875,9.96945571289062,-0.464475122070312
3.12036909741193,0.09576806640625,9.93114848632812,-0.445321508789062
3.12847930721009,0.086191259765625,9.95509050292969,-0.435744702148437
3.13628102482077,0.09576806640625,9.99339772949219,-0.512359155273437
3.14408274243144,0.100556469726563,9.99339772949219,-0.488417138671875
3.15188446004212,0.0814028564453125,9.97903251953125,-0.483628735351562
3.15453136059551,0.100556469726563,9.99339772949219,-0.469263525390625
3.15717826114889,0.124498486328125,9.98382092285156,-0.416591088867187
3.15982516170228,0.067037646484375,9.9981861328125,-0.469263525390625
3.1624729730087,0.105344873046875,9.95509050292969,-0.483628735351562
3.16512078431512,0.110133276367187,9.97903251953125,-0.4979939453125
3.16776859562155,0.0814028564453125,9.99339772949219,-0.474051928710937
3.17048370071052,0.129286889648437,9.97424411621094,-0.416591088867187
3.1731988057995,0.124498486328125,10.036493359375,-0.36391865234375
3.17591391088848,0.086191259765625,9.9981861328125,-0.40222587890625
3.17863417640497,0.110133276367187,10.0317049560547,-0.44053310546875
3.18135444192146,0.0909796630859375,9.9981861328125,-0.36391865234375
3.18407470743796,0.129286889648437,9.96945571289062,-0.469263525390625
3.1867890002982,0.124498486328125,10.0029745361328,-0.426167895507812
3.18950329315844,0.105344873046875,9.99339772949219,-0.378283862304687
3.19221758601869,0.110133276367187,9.98382092285156,-0.383072265625
3.20163407343189,0.047884033203125,9.93114848632812,-0.454898315429687
3.21105056084509,0.0526724365234375,9.95030209960937,-0.40222587890625
3.22046704825829,0.0622492431640625,9.95987890625,-0.368707055664062
3.2231416797687,0.047884033203125,10.0173397460938,-0.36391865234375
3.22581631127912,0.0718260498046875,9.96945571289062,-0.407014282226562
3.22849094278953,0.0814028564453125,9.98860932617187,-0.387860668945312
3.23116469989674,0.0718260498046875,9.97424411621094,-0.387860668945312
3.23383845700395,0.01915361328125,9.95987890625,-0.426167895507812
3.23651221411116,0.047884033203125,9.99339772949219,-0.4213794921875
3.23918552964936,0.0430956298828125,10.0221281494141,-0.445321508789062
3.24185884518756,0.028730419921875,9.98382092285156,-0.450109912109375
3.24453216072575,0.0622492431640625,9.96945571289062,-0.426167895507812
3.2486090123425,0.05746083984375,10.0077629394531,-0.40222587890625
3.25268586395925,0.067037646484375,9.9981861328125,-0.387860668945312
3.256762715576,0.047884033203125,10.0317049560547,-0.330399829101562
3.25934216403519,0.067037646484375,10.0173397460938,-0.378283862304687
3.26192161249439,0.067037646484375,9.99339772949219,-0.392649072265625
3.26450106095358,0.0622492431640625,10.0029745361328,-0.339976635742188
3.26708014439543,0.0814028564453125,10.0125513427734,-0.387860668945312
3.26965922783727,0.09576806640625,10.0173397460938,-0.397437475585937
3.27223831127912,0.047884033203125,10.0317049560547,-0.359130249023437
3.27481763419579,0.086191259765625,10.0077629394531,-0.330399829101562
3.27739695711246,0.0526724365234375,9.9981861328125,-0.407014282226562
3.27997628002912,0.09576806640625,9.97424411621094,-0.335188232421875
3.28262589808468,0.0718260498046875,10.0077629394531,-0.36391865234375
3.28527551614024,0.100556469726563,9.94072529296875,-0.430956298828125
3.2879251341958,0.09576806640625,9.98860932617187,-0.502782348632812
3.29057553512895,0.076614453125,9.98860932617187,-0.4979939453125
3.2932259360621,0.143652099609375,10.0125513427734,-0.502782348632812
3.29587633699526,0.124498486328125,9.97903251953125,-0.526724365234375
3.2985269470213,0.100556469726563,10.0125513427734,-0.488417138671875
3.30117755704734,0.110133276367187,10.0173397460938,-0.47884033203125
3.30382816707338,0.100556469726563,9.95509050292969,-0.40222587890625
3.30647886390497,0.0909796630859375,10.0269165527344,-0.450109912109375
3.30912956073656,0.119710083007812,9.98860932617187,-0.349553442382812
3.31178025756815,0.0909796630859375,10.0317049560547,-0.464475122070312
3.31434903432867,0.047884033203125,10.0029745361328,-0.454898315429687
3.31691781108919,0.110133276367187,9.98860932617187,-0.430956298828125
3.31948658784971,0.13407529296875,9.99339772949219,-0.45968671875
3.32194675170877,0.076614453125,9.98860932617187,-0.454898315429687
3.32440691556782,0.086191259765625,10.0317049560547,-0.435744702148437
3.32686707942688,0.0814028564453125,9.99339772949219,-0.383072265625
3.32936692513,0.0718260498046875,10.0077629394531,-0.435744702148437
3.33186677083313,0.0718260498046875,10.0221281494141,-0.44053310546875
3.33436661653626,0.076614453125,10.0269165527344,-0.40222587890625
3.33682952864563,0.0909796630859375,10.036493359375,-0.4213794921875
3.339292440755,0.0622492431640625,10.036493359375,-0.392649072265625
3.34175535286437,0.0814028564453125,9.99339772949219,-0.407014282226562
3.34433170898416,0.0909796630859375,9.96945571289062,-0.40222587890625
3.34690806510396,0.05746083984375,9.99339772949219,-0.454898315429687
3.34948442122375,0.0526724365234375,10.0269165527344,-0.416591088867187
3.352063190755,0.0622492431640625,9.98860932617187,-0.378283862304687
3.35464196028626,0.076614453125,9.96945571289062,-0.387860668945312
3.35722072981751,0.0335188232421875,9.98860932617187,-0.416591088867187
3.3598020585393,0.0622492431640625,9.99339772949219,-0.320823022460937
3.36238338726109,0.0526724365234375,9.97903251953125,-0.387860668945312
3.36496471598288,0.067037646484375,9.99339772949219,-0.354341845703125
3.36754887548808,0.0718260498046875,9.9981861328125,-0.311246215820312
3.37013303499329,0.0814028564453125,10.0077629394531,-0.335188232421875
3.37271719449849,0.067037646484375,10.0317049560547,-0.292092602539062
3.37530338640507,0.067037646484375,9.96945571289062,-0.349553442382812
3.37788957831166,0.05746083984375,9.93593688964844,-0.3447650390625
3.38047577021824,0.067037646484375,9.9981861328125,-0.359130249023437
3.38306349472514,0.076614453125,9.9981861328125,-0.359130249023437
3.38565121923203,0.09576806640625,9.9981861328125,-0.335188232421875
3.38823894373893,0.119710083007812,9.98382092285156,-0.354341845703125
3.39082784233919,0.076614453125,10.0221281494141,-0.32561142578125
3.39341674093946,0.0622492431640625,10.0125513427734,-0.330399829101562
3.39600563953972,0.100556469726563,9.99339772949219,-0.258573779296875
3.4064845948168,0.138863696289063,9.98382092285156,-0.32561142578125
3.41696355009387,0.076614453125,9.98382092285156,-0.373495458984375
3.42744250537094,0.1149216796875,10.0125513427734,-0.4213794921875
3.42999789105888,0.086191259765625,10.0412817626953,-0.387860668945312
3.43255327674682,0.09576806640625,10.0700121826172,-0.378283862304687
3.43510866243476,0.05746083984375,10.0077629394531,-0.320823022460937
3.43761053146688,0.067037646484375,9.98382092285156,-0.320823022460937
3.44011240049901,0.0430956298828125,10.0173397460938,-0.378283862304687
3.44261426953113,0.0622492431640625,10.0460701660156,-0.301669409179687
3.44511198882366,0.0430956298828125,10.0652237792969,-0.239420166015625
3.4476097081162,0.0718260498046875,10.0748005859375,-0.28730419921875
3.45010742740873,0.0526724365234375,10.0556469726563,-0.301669409179687
3.45267563541654,0.086191259765625,10.0412817626953,-0.28730419921875
3.45524384342435,0.0718260498046875,10.0125513427734,-0.253785375976562
3.45781205143216,0.067037646484375,10.0412817626953,-0.24899697265625
3.46045777918824,0.0383072265625,10.0652237792969,-0.277727392578125
3.46310350694432,0.0335188232421875,10.0604353759766,-0.277727392578125
3.4657492347004,0.0383072265625,10.1370498291016,-0.263362182617187
3.46839574793826,0.0239420166015625,10.0652237792969,-0.234631762695312
3.47104226117611,0.028730419921875,10.0700121826172,-0.225054956054687
3.47368877441397,0.0383072265625,10.0748005859375,-0.186747729492187
3.47633542078983,0.0718260498046875,10.0412817626953,-0.253785375976562
3.4789820671657,0.0335188232421875,10.0556469726563,-0.201112939453125
3.48162871354156,0.0622492431640625,10.0412817626953,-0.215478149414062
3.48423454190527,0.0909796630859375,10.0891657958984,-0.21068974609375
3.48684037026899,0.086191259765625,10.0700121826172,-0.17238251953125
3.4894461986327,0.110133276367187,10.0460701660156,-0.110133276367187
3.49199687808149,0.0718260498046875,10.0221281494141,-0.119710083007812
3.49454755753028,0.05746083984375,10.0269165527344,-0.076614453125
3.49709823697906,0.0718260498046875,10.0029745361328,-0.143652099609375
3.49960788769521,0.0909796630859375,10.0412817626953,-0.028730419921875
3.50211753841136,0.09576806640625,10.1035310058594,0.110133276367187
3.50462718912751,0.110133276367187,10.1178962158203,0.387860668945312
3.50690306445303,0.15322890625,10.1178962158203,0.469263525390625
3.50917893977856,0.1149216796875,10.0652237792969,0.541089575195312
3.51145481510408,0.047884033203125,9.9981861328125,0.407014282226562
3.51723512958434,0.009576806640625,9.94072529296875,-0.531512768554687
3.5230154440646,0.0143652099609375,9.96945571289062,-0.51714755859375
3.52879575854485,0.0335188232421875,9.95987890625,-0.526724365234375
3.53113113376186,0.01915361328125,10.0173397460938,-0.51714755859375
3.53346650897887,0.0718260498046875,10.0843773925781,-0.359130249023437
3.53580188419588,0.09576806640625,10.1178962158203,-0.368707055664062
3.53828665329311,0.0814028564453125,10.1562034423828,-0.296881005859375
3.54077142239033,0.0814028564453125,10.1562034423828,-0.277727392578125
3.54325619148755,0.076614453125,10.2423947021484,-0.21068974609375
3.54574292412644,0.047884033203125,10.2040874755859,-0.263362182617187
3.54822965676533,0.148440502929687,10.1992990722656,-0.225054956054687
3.55071638940422,0.086191259765625,10.2471831054687,-0.229843359375
3.55320569137904,0.09576806640625,10.2519715087891,-0.272938989257812
3.55569499335386,0.0909796630859375,10.2711251220703,-0.244208569335937
3.55818429532868,0.124498486328125,10.26633671875,-0.229843359375
3.56067435533301,0.124498486328125,10.2615483154297,-0.229843359375
3.56316441533735,0.105344873046875,10.2950671386719,-0.234631762695312
3.56565447534168,0.0814028564453125,10.2902787353516,-0.272938989257812
3.56814313640086,0.067037646484375,10.2902787353516,-0.17238251953125
3.57063179746003,0.0814028564453125,10.2711251220703,-0.158017309570312
3.57312045851921,0.0430956298828125,10.2088758789062,-0.177170922851562
3.57560225187935,0.076614453125,10.2232410888672,-0.1149216796875
3.5780840452395,0.0335188232421875,10.189722265625,-0.158017309570312
3.58056583859964,0.0430956298828125,10.1849338623047,-0.09576806640625
3.5830416789743,0.0383072265625,10.2088758789062,-0.100556469726563
3.58551751934895,0.0622492431640625,10.2040874755859,-0.0335188232421875
3.58799335972361,0.0430956298828125,10.1849338623047,-0.124498486328125
3.59895019511082,0.047884033203125,9.98382092285156,-0.129286889648437
3.60990703049803,0.09576806640625,9.9981861328125,0.0047884033203125
3.62086386588523,0.0909796630859375,10.0269165527344,-0.028730419921875
3.62375968402759,0.09576806640625,10.0173397460938,-0.028730419921875
3.62665550216995,0.0718260498046875,10.0269165527344,-0.067037646484375
3.62955132031231,0.0718260498046875,10.0125513427734,-0.0909796630859375
3.63244617610659,0.0622492431640625,10.0795889892578,-0.01915361328125
3.63534103190086,0.05746083984375,10.0795889892578,0.0143652099609375
3.63823588769514,0.047884033203125,10.0939541992188,0.0383072265625
3.64112957096337,0.0335188232421875,10.1131078125,0.0335188232421875
3.6440232542316,0.0335188232421875,10.0987426025391,-0.009576806640625
3.64691693749983,0.0526724365234375,10.1035310058594,0.05746083984375
3.64980729036442,0.009576806640625,10.0987426025391,0.110133276367187
3.65269764322901,-0.009576806640625,10.0843773925781,0.0047884033203125
3.65558799609359,-0.0047884033203125,10.0987426025391,0.0909796630859375
3.65847767220036,-0.076614453125,10.1274730224609,0.076614453125
3.66136734830713,-0.067037646484375,10.1418382324219,0.186747729492187
3.66425702441389,-0.067037646484375,10.1562034423828,0.1915361328125
3.66700635568559,-0.105344873046875,10.1418382324219,0.21068974609375
3.66975568695729,-0.0383072265625,10.1609918457031,0.17238251953125
3.672505018229,-0.0718260498046875,10.1466266357422,0.282515795898438
3.70638636751282,0.09576806640625,10.1753570556641,0.86191259765625
3.74026771679664,0.110133276367187,10.1178962158203,0.809240161132812
3.77414906608046,0.076614453125,10.1322614257812,0.78529814453125
3.77688734830703,0.067037646484375,10.0891657958984,0.842758984375
3.77962563053359,0.09576806640625,10.0795889892578,0.857124194335937
3.78236391276015,0.09576806640625,10.0652237792969,0.924161840820312
3.78510157606311,0.0718260498046875,10.0556469726563,1.0342951171875
3.78783923936606,0.1149216796875,10.0556469726563,1.09175595703125
3.79057690266901,0.086191259765625,10.0508585693359,1.14442839355469
3.79331363953967,0.105344873046875,10.0317049560547,1.1875240234375
3.79605037641034,0.0909796630859375,10.0700121826172,1.19231242675781
3.798787113281,0.086191259765625,10.0891657958984,1.28808049316406
3.80152102473934,0.100556469726563,10.0987426025391,1.2641384765625
3.80425493619767,0.086191259765625,10.0460701660156,1.25935007324219
3.80698884765601,0.086191259765625,10.0556469726563,1.25935007324219
3.80972138009958,0.129286889648437,10.0221281494141,1.21625444335937
3.81245391254315,0.100556469726563,10.0556469726563,1.20667763671875
3.81518644498671,0.138863696289063,10.0077629394531,1.17794721679687
3.81791893012126,0.148440502929687,9.98382092285156,1.25456166992187
3.8206514152558,0.119710083007812,9.96466730957031,1.28329208984375
3.82338390039035,0.100556469726563,9.91199487304687,1.302445703125
3.83697600105766,0.158017309570312,9.30386765136719,1.63284553222656
3.85056810172498,0.105344873046875,9.27992563476562,1.64242233886719
3.86416020239229,0.110133276367187,9.29429084472656,1.67594116210937
3.86681896790879,0.138863696289063,9.18894597167969,1.74297880859375
3.86947773342528,0.119710083007812,9.16500395507812,1.88184250488281
3.87213649894178,0.0622492431640625,9.10275471191406,1.84353527832031
3.87479561119221,0.076614453125,9.06923588867187,1.90578452148437
3.87745472344264,0.0718260498046875,8.94473740234375,1.84353527832031
3.88011383569307,0.05746083984375,8.8489693359375,1.87226569824219
3.88277292135931,0.01915361328125,8.79629689941406,1.90099611816406
3.88543200702554,0.0143652099609375,8.70531723632812,1.88184250488281
3.88809109269177,0.028730419921875,8.59039555664062,1.85790048828125
3.89075045429117,0.086191259765625,8.56645354003906,1.87226569824219
3.89340981589056,0.076614453125,8.48026228027344,1.82917006835937
3.89606917748996,0.0718260498046875,8.42758984375,1.838746875
3.89872971447726,0.05746083984375,8.29351455078125,1.82917006835937
3.90139025146456,0.0239420166015625,8.22647690429687,1.90099611816406
3.90405078845186,0.01915361328125,8.16901606445312,2.04943662109375
3.91215978686494,-0.162805712890625,7.41723674316406,1.69988317871094
3.92026878527803,-0.167594116210937,7.32625708007812,1.63763393554687
3.92837778369112,-0.162805712890625,7.33104548339844,1.58974990234375
3.93102057458467,-0.225054956054687,7.24485422363281,1.55144267578125
3.93366336547822,-0.239420166015625,7.20175859375,1.61369191894531
3.93630615637177,-0.205901342773437,7.15866296386719,1.58974990234375
3.93883996088295,-0.220266552734375,7.07247170410156,1.4939818359375
3.94137376539412,-0.2681505859375,7.05810649414062,1.35511813964844
3.9439075699053,-0.229843359375,6.94797321777344,1.25456166992187
3.94629868568221,-0.258573779296875,6.96233842773437,1.13963999023438
3.94868980145912,-0.253785375976562,6.88572397460938,1.04387192382812
3.95108091723603,-0.3064578125,6.92881960449219,0.857124194335937
3.95331722729462,-0.258573779296875,6.95276162109375,0.828393774414062
3.95555353735321,-0.320823022460937,6.90008918457031,0.82360537109375
3.9577898474118,-0.2681505859375,6.95755002441406,0.828393774414062
3.96001743280676,-0.292092602539062,6.90966599121094,0.82360537109375
3.96224501820172,-0.3064578125,6.9336080078125,0.837970581054687
3.96447260359668,-0.320823022460937,6.94797321777344,0.866701000976562
3.96662765345562,-0.330399829101562,6.94797321777344,1.01992990722656
3.96878270331457,-0.316034619140625,6.9336080078125,1.16358200683594
3.97093775317351,-0.330399829101562,6.96712683105469,1.27371528320312
3.97305492721865,-0.36391865234375,7.02937607421875,1.39342536621094
3.97517210126379,-0.32561142578125,7.00064565429687,1.52750065917969
3.97728927530893,-0.392649072265625,7.09162531738281,1.56101948242187
3.97940555748124,-0.383072265625,7.125144140625,1.56580788574219
3.98152183965355,-0.397437475585937,7.125144140625,1.55623107910156
3.98363812182586,-0.416591088867187,7.12993254394531,1.5705962890625
3.98575449701875,-0.359130249023437,7.17781657714844,1.47961662597656
3.98787087221165,-0.40222587890625,7.22570061035156,1.42694418945312
3.98998724740455,-0.416591088867187,7.26879624023437,1.47003981933594
3.99216900205829,-0.373495458984375,7.34062229003906,1.40779057617187
3.99435075671203,-0.383072265625,7.40287153320312,1.47003981933594
3.99653251136577,-0.36391865234375,7.47469758300781,1.455674609375
3.99871751689961,-0.28730419921875,7.49863959960937,1.50355864257812
4.00090252243346,-0.272938989257812,7.48906279296875,1.58496149902344
4.00308752796731,-0.181959326171875,7.55131203613281,1.61848032226562
4.00527481248457,-0.162805712890625,7.49385119628906,1.64242233886719
4.00746209700184,-0.067037646484375,7.53215842285156,1.66636435546875
4.0096493815191,-0.028730419921875,7.52258161621094,1.71424838867187
4.01184046346595,0.028730419921875,7.49863959960937,1.65199914550781
4.01403154541281,0.028730419921875,7.48906279296875,1.68551796875
4.01622262735966,0.105344873046875,7.50821640625,1.62326872558594
4.01841767041521,0.138863696289063,7.48906279296875,1.56580788574219
4.02061271347076,0.244208569335937,7.48906279296875,1.52750065917969
4.02280775652631,0.220266552734375,7.48427438964844,1.49877023925781
4.02522328278499,0.296881005859375,7.431601953125,1.44130939941406
4.02763880904367,0.339976635742188,7.46033237304687,1.56580788574219
4.03005433530235,0.3447650390625,7.43639035644531,1.50355864257812
4.03247262764176,0.373495458984375,7.43639035644531,1.56580788574219
4.03489091998116,0.392649072265625,7.44596716308594,1.67115275878906
4.03730921232057,0.407014282226562,7.43639035644531,1.7238251953125
4.0397296220862,0.430956298828125,7.41723674316406,1.78607443847656
4.04215003185182,0.44053310546875,7.36456430664062,1.80522805175781
4.04457044161745,0.464475122070312,7.43639035644531,1.8770541015625
4.04699263167821,0.426167895507812,7.46033237304687,1.8770541015625
4.04941482173898,0.430956298828125,7.46512077636719,1.94888015136719
4.05183701179974,0.416591088867187,7.48906279296875,2.04464821777344
4.05426043636571,0.383072265625,7.49385119628906,2.15478149414062
4.05668386093168,0.32561142578125,7.52258161621094,2.14999309082031
4.05910728549766,0.311246215820312,7.51779321289062,2.26970317382813
4.06153190626588,0.292092602539062,7.53215842285156,2.34152922363281
4.06395652703411,0.292092602539062,7.54173522949219,2.4133552734375
4.06638114780234,0.220266552734375,7.53215842285156,2.40377846679687
4.06880699656536,0.201112939453125,7.54173522949219,2.39899006347656
4.07123284532839,0.201112939453125,7.47948598632812,2.4133552734375
4.07365869409141,0.067037646484375,7.4699091796875,2.36547124023437
4.08597778471644,-0.493205541992187,7.72369455566406,1.915361328125
4.09829687534146,-0.51714755859375,7.76200178222656,1.87226569824219
4.11061596596649,-0.526724365234375,7.74763657226562,2.00634099121094
4.11311115425859,-0.526724365234375,7.78115539550781,2.09253225097656
4.1156063425507,-0.512359155273437,7.81946262207031,2.27927998046875
4.1181015308428,-0.493205541992187,7.88650026855469,2.38462485351562
4.12058507232501,-0.483628735351562,7.9295958984375,2.58573779296875
4.12306861380722,-0.469263525390625,7.96311472167969,2.60010300292969
4.12555215528944,-0.435744702148437,8.00142194824219,2.75333190917969
4.12812378023518,-0.430956298828125,8.03494077148437,2.76290871582031
4.13069540518093,-0.383072265625,8.044517578125,2.77727392578125
4.13326703012667,-0.426167895507812,8.0828248046875,2.74854350585938
4.13578316030245,-0.368707055664062,8.0828248046875,2.681505859375
4.13829929047822,-0.339976635742188,8.07324799804687,2.59052619628906
4.140815420654,-0.301669409179687,8.10676682128906,2.40377846679687
4.14331540454071,-0.263362182617187,8.13070883789062,2.42772048339844
4.14581538842743,-0.21068974609375,8.09719001464844,2.40377846679687
4.14831537231414,-0.201112939453125,8.16901606445312,2.44208569335937
4.15081209654374,-0.162805712890625,8.20253488769531,2.63841022949219
4.15330882077334,-0.13407529296875,8.21211169433594,2.77248552246094
4.15580554500294,-0.148440502929687,8.14507404785156,2.9496564453125
4.1582678397078,-0.0909796630859375,8.14028564453125,3.08852014160156
4.16073013441266,-0.105344873046875,8.20732329101562,3.16034619140625
4.16319242911752,-0.086191259765625,8.18816967773437,3.22259543457031
4.16561745917395,-0.0622492431640625,8.17380446777344,3.24174904785156
4.16804248923037,-0.09576806640625,8.21211169433594,3.22259543457031
4.1704675192868,-0.086191259765625,8.24563051757812,3.21780703125
4.17288700680849,-0.124498486328125,8.3126681640625,3.16513459472656
4.17530649433019,-0.13407529296875,8.3892826171875,3.08852014160156
4.17772598185189,-0.086191259765625,8.44674345703125,3.05500131835937
4.18651025195279,-0.608127221679687,8.94473740234375,3.22738383789062
4.1952945220537,-0.636857641601562,8.91121857910156,3.28484467773437
4.2040787921546,-0.67037646484375,8.86333454589844,3.24653745117187
4.20664221147969,-0.70868369140625,8.85854614257812,3.21780703125
4.20920563080477,-0.770932934570312,8.84418093261719,3.35188232421875
4.21176905012986,-0.828393774414062,8.810662109375,3.35188232421875
4.21433256412725,-0.86191259765625,8.86333454589844,3.45722719726562
4.21689607812464,-0.924161840820312,8.91121857910156,3.69664736328125
4.21945959212204,-0.948103857421875,8.93037219238281,3.78762702636719
4.22202311680736,-0.972045874023437,8.94473740234375,3.84029946289062
4.22458664149268,-1.00077629394531,8.963891015625,3.95522114257812
4.22715016617801,-1.06302553710937,8.95431420898437,3.95522114257812
4.22970052354562,-1.05823713378906,8.93037219238281,4.03662399902344
4.23225088091324,-1.07260234375,8.93516059570312,3.92170231933594
4.23480123828086,-1.06302553710937,8.89685336914062,3.95043273925781
4.23737987109337,-1.06302553710937,8.91600698242187,3.99352836914062
4.23995850390587,-1.02471831054687,8.91121857910156,4.00310517578125
4.24253713671838,-1.04866032714844,8.91600698242187,3.96479794921875
4.25027208734772,-0.181959326171875,8.89685336914062,4.19942971191406
4.25800703797707,-0.067037646484375,8.89206496582031,4.07493122558594
4.26574198860641,-0.028730419921875,8.89206496582031,4.01268198242188
4.26825369401006,0.0814028564453125,8.89685336914062,3.96000954589844
4.2707653994137,0.13407529296875,8.91121857910156,3.9839515625
4.27327710481735,0.196324536132812,8.87769975585937,4.03662399902344
4.27578809483471,0.2681505859375,8.94952580566406,4.18506450195312
4.27829908485208,0.3064578125,8.96867941894531,4.15633408203125
4.28081007486944,0.3064578125,8.963891015625,4.23773693847656
4.28332091840244,0.36391865234375,9.02135185546875,4.29998618164062
4.28583176193543,0.392649072265625,9.08360109863281,4.31913979492187
4.28834260546842,0.392649072265625,9.117119921875,4.35265861816406
4.29099295540332,0.378283862304687,9.14106193847656,4.39575424804687
4.29364330533821,0.3447650390625,9.16021555175781,4.31435139160156
4.29629365527311,0.3064578125,9.21767639160156,4.26646735839844
4.29894517209169,0.258573779296875,9.20809958496094,4.33350500488281
4.30159668891027,0.186747729492187,9.21767639160156,4.4053310546875
4.30424820572885,0.129286889648437,9.17458076171875,4.41011945800781
4.30689873459169,0.0,9.193734375,4.44363828125
4.30954926345453,-0.0622492431640625,9.17936916503906,4.50109912109375
4.31219979231737,-0.148440502929687,9.15063874511719,4.61123239746094
4.31478315440503,-0.225054956054687,9.12669672851562,4.7117888671875
4.3173665164927,-0.349553442382812,9.10275471191406,4.81234533691406
4.31994987858037,-0.474051928710937,9.0788126953125,4.98472785644531
4.32253252050746,-0.560243188476563,9.10275471191406,4.99430466308594
4.32511516243455,-0.699106884765625,9.10275471191406,5.07570751953125
4.32769780436164,-0.828393774414062,9.09796630859375,5.12359155273437
4.33012940917935,-0.962469067382812,9.05487067871094,5.09964953613281
4.33256101399706,-1.10612116699219,9.07402429199219,5.20499440917969
4.33499261881477,-1.22104284667969,9.08360109863281,5.21457121582031
4.33742114518196,-1.32159931640625,9.13627353515625,5.286397265625
4.33984967154915,-1.42694418945312,9.14585034179687,5.22893642578125
4.34227819791634,-1.52750065917969,9.13148513183594,5.21457121582031
4.34967407291634,-1.30723410644531,8.82023891601562,5.09007272949219
4.35706994791635,-1.18273562011719,8.8489693359375,5.09007272949219
4.36446582291635,-1.13006318359375,8.7723548828125,5.08528432617187
4.36695112619326,-0.948103857421875,8.75798967285156,4.98472785644531
4.36943642947017,-0.852335791015625,8.80108530273437,4.98472785644531
4.37192173274708,-0.684741674804688,8.78193168945312,5.06134230957031
4.37440806759951,-0.531512768554687,8.79150849609375,5.15232197265625
4.37689440245194,-0.339976635742188,8.95431420898437,5.18105239257812
4.37938073730437,-0.229843359375,8.93994899902344,5.14753356933594
4.38185622030753,-0.1149216796875,8.98304462890625,5.08049592285156
4.38433170331068,0.0622492431640625,8.963891015625,5.10922634277344
4.38680718631384,0.220266552734375,9.01656345214844,5.19541760253906
4.38926765099483,0.292092602539062,9.02614025878906,5.2480900390625
4.39172811567581,0.45968671875,9.05965908203125,5.31033928222656
4.3941885803568,0.579396801757812,9.04529387207031,5.43004936523437
4.39677981805675,0.627280834960937,9.11233151855469,5.49708701171875
4.39937105575671,0.608127221679687,9.0788126953125,5.53539423828125
4.40196229345667,0.694318481445312,8.99262143554687,5.56891306152344
4.40454612093063,0.67037646484375,9.01177504882812,5.52102902832031
4.40712994840458,0.598550415039062,9.03571706542969,5.53539423828125
4.40971377587854,0.560243188476563,9.08838950195312,5.61200869140625
4.41229835487158,0.435744702148437,9.10754311523437,5.47314499511719
4.41488293386463,0.32561142578125,9.1554271484375,5.49229860839844
4.41746751285768,0.21068974609375,9.14106193847656,5.34864650878906
4.4200521694332,0.0909796630859375,9.16021555175781,5.30555087890625
4.42263682600872,-0.17238251953125,9.2320416015625,5.23851323242187
4.42522148258424,-0.282515795898438,9.26077202148437,5.31512768554687
4.42787247737591,-0.383072265625,9.26077202148437,5.2480900390625
4.43052347216758,-0.646434448242187,9.26077202148437,5.31991608886719
4.43317446695925,-0.775721337890625,9.15063874511719,5.41568415527344
4.43575656287939,-0.8810662109375,9.15063874511719,5.37258852539062
4.43833865879953,-1.12048637695313,9.12190832519531,5.46835659179687
4.44092075471968,-1.21625444335937,9.13627353515625,5.51145222167969
4.44842883089155,-1.88184250488281,8.657433203125,6.21534750976562
4.45593690706341,-1.8770541015625,8.74362446289062,6.21055910644531
4.46344498323528,-1.92493813476562,8.70052883300781,6.31590397949219
4.4659498162431,-1.87226569824219,8.71010563964844,6.48828649902344
4.46845464925091,-1.81959326171875,8.71968244628906,6.45955607910156
4.47095948225873,-1.83395847167969,8.69095202636719,6.42603725585937
4.47346596185942,-1.80522805175781,8.78672009277344,6.51701691894531
4.4759724414601,-1.68072956542969,8.77714328613281,6.59363137207031
4.47847892106079,-1.64242233886719,8.7723548828125,6.55532414550781
4.48098683143405,-1.58017309570312,8.73883605957031,6.48349809570312
4.48349474180732,-1.50834704589844,8.69095202636719,6.27759675292969
4.48600265218058,-1.44130939941406,8.6191259765625,5.98071574707031
4.4885106244028,-1.39342536621094,8.64785639648438,5.77002600097656
4.49101859662502,-1.39821376953125,8.57124194335938,5.64552751464844
4.49352656884724,-1.21625444335937,8.51856950683594,5.69341154785156
4.49606823558172,-1.12048637695313,8.48505068359375,5.9376201171875
4.49860990231621,-1.02950671386719,8.46110866699219,6.15309826660156
4.50115156905069,-0.914585034179687,8.40843623046875,6.16267507324219
4.50366234119967,-0.866701000976562,8.43716665039062,6.33505759277344
4.50617311334865,-0.751779321289062,8.43716665039062,6.49786330566406
4.50868388549762,-0.598550415039062,8.46110866699219,6.52659372558594
4.51118480688434,-0.512359155273437,8.61433757324219,6.58884296875
4.51368572827106,-0.416591088867187,8.76756647949219,6.46434448242187
4.51618664965778,-0.339976635742188,8.88248815917969,6.36857641601562
4.51861096682357,-0.181959326171875,8.98304462890625,6.30632717285156
4.52103528398937,-0.0383072265625,9.117119921875,6.38294162597656
4.52345960115517,0.0430956298828125,9.28950244140625,6.59841977539062
4.5258805406083,0.129286889648437,9.34696328125,6.67024582519531
4.52830148006143,0.0909796630859375,9.36611689453125,6.82347473144531
4.53072241951455,0.158017309570312,9.37090529785156,6.95276162109375
4.5331432600636,0.229843359375,9.39484731445313,7.13950935058594
4.53556410061264,0.292092602539062,9.39005891113281,7.26400783691406
4.53798494116169,0.349553442382812,9.29907924804687,7.26879624023437
4.54040577444077,0.407014282226562,9.26077202148437,7.26400783691406
4.54282660771986,0.407014282226562,9.3086560546875,7.3166802734375
4.54524744099894,0.316034619140625,9.36611689453125,7.19697019042969
4.54766857657837,0.32561142578125,9.52413420410156,7.16823977050781
4.5500897121578,0.234631762695312,9.43315454101563,7.11556733398437
4.55251084773723,0.215478149414062,9.39005891113281,7.21133540039062
4.55493183797161,0.129286889648437,9.48103857421875,7.19697019042969
4.55735282820599,0.124498486328125,9.54807622070313,7.21133540039062
4.55977381844037,0.0526724365234375,9.64384428710937,7.24964262695312
4.5621941422251,-0.0430956298828125,9.62469067382813,7.4699091796875
4.56461446600983,0.0383072265625,9.64863269042969,7.79073220214844
4.56703478979455,0.05746083984375,9.70130512695312,8.11634362792969
4.56948973144107,0.0383072265625,9.60553706054687,8.21690009765625
4.57194467308759,-0.0718260498046875,9.54807622070313,8.08761320800781
4.57439961473411,-0.158017309570312,9.39005891113281,7.72848295898437
4.57672691281044,-0.3064578125,9.36132849121094,7.64708010253906
4.57905421088676,-0.36391865234375,9.21767639160156,7.69017573242187
4.58138150896309,-0.416591088867187,9.06444748535156,7.82903942871094
4.58358110661158,-0.545877978515625,8.91121857910156,7.94874951171875
4.58578070426007,-0.565031591796875,8.82502731933594,8.12592043457031
4.58798030190856,-0.660799658203125,8.85375773925781,8.19295808105469
4.59005134767524,-0.814028564453125,8.90643017578125,8.39885942382812
4.59212239344192,-0.837970581054687,8.93037219238281,8.37970581054688
4.5941934392086,-0.876277807617187,9.117119921875,8.56166513671875
4.59623093302371,-0.86191259765625,9.19852277832031,8.67658681640625
4.59826842683881,-0.732625708007812,9.25598361816406,8.86333454589844
4.60030592065392,-0.732625708007812,9.32780966796875,8.72447084960938
4.60240945705799,-0.70868369140625,9.35175168457031,8.48505068359375
4.60451299346207,-0.70868369140625,9.2320416015625,8.45632026367188
4.60661652986615,-0.737414111328125,9.18894597167969,8.70531723632812
4.60872503046294,-0.723048901367187,9.07402429199219,9.13627353515625
4.61083353105972,-0.67037646484375,8.99740983886719,9.38048210449219
4.61294203165651,-0.723048901367187,8.93516059570312,9.25119521484375
4.61505128171076,-0.70868369140625,8.95431420898437,9.20331118164062
4.61716053176501,-0.732625708007812,8.98304462890625,9.21288798828125
4.61926978181926,-0.794874951171875,9.16021555175781,9.40921252441406
4.62137923760268,-0.837970581054687,9.36132849121094,9.6151138671875
4.6234886933861,-0.814028564453125,9.57201823730469,9.63426748046875
4.62559814916951,-0.914585034179687,9.81143840332031,9.31823286132813
4.62770728035441,-0.890643017578125,9.77313117675781,9.04050546875
4.62981641153931,-0.74699091796875,9.99339772949219,8.94473740234375
4.63192554272421,-0.699106884765625,10.1274730224609,9.02135185546875
4.63409338866794,-0.565031591796875,10.3908352050781,9.13627353515625
4.63626123461167,-0.579396801757812,10.5823713378906,9.21288798828125
4.63842908055541,-0.565031591796875,10.7643306640625,9.58159504394531
4.64058241053446,-0.36391865234375,10.9319247802734,9.87847604980469
4.64273574051352,-0.3447650390625,11.03248125,10.1562034423828
4.64488907049258,-0.196324536132812,11.2575362060547,10.4339308349609
4.64702523791408,-0.0909796630859375,11.4251303222656,10.7260234375
4.64916140533559,-0.0335188232421875,11.6932809082031,10.9654436035156
4.65129757275709,0.100556469726563,11.9614314941406,11.03248125
4.65342069361496,0.17238251953125,12.181698046875,10.9989624267578
4.65554381447283,0.220266552734375,12.4211182128906,10.7739074707031
4.65766693533071,0.215478149414062,12.641384765625,10.6685625976562
4.65977444712494,0.3447650390625,12.9286889648437,10.6877162109375
4.66188195891917,0.469263525390625,13.1441671142578,10.87925234375
4.66398947071341,0.550666381835937,13.2590887939453,10.9702320068359
4.666140091977,0.67037646484375,13.33091484375,10.9223479736328
4.66829071324059,0.7278373046875,13.4123177001953,11.0468464599609
4.67044133450418,0.799663354492188,13.3213380371094,11.0229044433594
4.67257576825361,0.933738647460937,13.2638771972656,11.0181160400391
4.67471020200305,1.07739074707031,13.1537439208984,11.0803652832031
4.67684463575248,1.15400520019531,13.0292454345703,11.3149970458984
4.67896226729592,1.24977326660156,12.871228125,11.6118780517578
4.68107989883936,1.28329208984375,12.8281324951172,11.7890489746094
4.68319753038279,1.23540805664062,12.8568629150391,11.8129909912109
4.68529762718986,1.13963999023438,12.8472861083984,11.9183358642578
4.68739772399693,1.07260234375,12.9813614013672,11.6310316650391
4.68949782080399,0.9576806640625,13.1872627441406,11.3149970458984
4.69158029975837,0.799663354492188,13.4362597167969,11.0755768798828
4.69366277871274,0.694318481445312,13.7570827392578,10.7882726806641
4.69574525766711,0.598550415039062,14.0108681152344,10.5201220947266
4.69787854975837,0.598550415039062,14.2311346679687,10.4435076416016
4.70001184184963,0.627280834960937,14.4130939941406,10.496180078125
4.7021451339409,0.67037646484375,14.5136504638672,10.7403886474609
4.70426218166036,0.660799658203125,14.5950533203125,11.1234609130859
4.70637922937983,0.703895288085937,14.5902649169922,11.3724578857422
4.70849627709929,0.603338818359375,14.5471692871094,11.6645504882812
4.7106093365611,0.526724365234375,14.5088620605469,12.0763531738281
4.7127223960229,0.426167895507812,14.4753432373047,12.2726777099609
4.71483545548471,0.311246215820312,14.5711113037109,12.4785790527344
4.7169443279348,0.086191259765625,14.6908213867187,12.5695587158203
4.71905320038489,-0.129286889648437,14.8584155029297,12.8808049316406
4.72116207283498,-0.272938989257812,15.0547400390625,12.8999585449219
4.72326732994218,-0.474051928710937,15.2893718017578,12.9143237548828
4.72537258704939,-0.565031591796875,15.4186586914062,13.0436106445312
4.72747784415659,-0.608127221679687,15.6245600341797,13.0675526611328
4.72965091419782,-0.723048901367187,15.7777889404297,13.0436106445312
4.73182398423905,-0.70868369140625,15.8208845703125,13.1345903076172
4.73399705428029,-0.646434448242187,15.8544033935547,13.1681091308594
4.73617067287838,-0.550666381835937,15.8017309570312,13.2638771972656
4.73834429147647,-0.536301171875,15.7682121337891,13.3644336669922
4.74051791007457,-0.445321508789062,15.7490585205078,13.3883756835937
4.74269164564314,-0.349553442382812,15.7155396972656,13.4362597167969
4.74486538121172,-0.296881005859375,15.6963860839844,13.5032973632812
4.74703911678029,-0.272938989257812,15.6820208740234,13.5703350097656
4.74920639397334,-0.181959326171875,15.7251165039062,13.6900450927734
4.75137367116639,-0.181959326171875,15.7873657470703,13.713987109375
4.75354094835944,-0.1149216796875,15.7873657470703,13.6230074462891
4.75567926477172,0.009576806640625,15.8065193603516,13.5799118164062
4.757817581184,0.119710083007812,15.8208845703125,13.4506249267578
4.75995589759627,0.143652099609375,15.7969425537109,13.4266829101562
4.76213360685192,0.277727392578125,15.7777889404297,13.2495119873047
4.76431131610757,0.435744702148437,15.7251165039062,13.0196686279297
4.76648902536322,0.59376201171875,15.6485020507812,12.7084224121094
4.76864583210632,0.636857641601562,15.5287919677734,12.4067530029297
4.77080263884942,0.641646044921875,15.4138702880859,12.5120978759766
4.77295944559253,0.756567724609375,15.2223341552734,12.5551935058594
4.77515448523977,0.837970581054687,15.0834704589844,12.5982891357422
4.777349524887,0.82360537109375,14.86320390625,12.6270195556641
4.77954456453424,0.814028564453125,14.6429373535156,12.6796919921875
4.7817351585555,0.794874951171875,14.4178823974609,12.7994020751953
4.78392575257677,0.718260498046875,14.2119810546875,12.8233440917969
4.78611634659803,0.617704028320312,14.1018477783203,12.7658832519531
4.7883062969561,0.397437475585937,14.0300217285156,12.4785790527344
4.79049624731417,0.196324536132812,13.9869260986328,12.2870429199219
4.79268619767225,0.0430956298828125,13.9629840820312,12.1625444335937
4.79487922186929,-0.177170922851562,13.9965029052734,11.9183358642578
4.79707224606634,-0.36391865234375,14.0012913085937,11.7315881347656
4.79926527026338,-0.598550415039062,14.0731173583984,11.7028577148437
4.80145903328422,-0.828393774414062,14.2263462646484,11.5256867919922
4.80365279630505,-1.02471831054687,14.3652099609375,11.5304751953125
4.80584655932588,-1.19710083007812,14.5711113037109,11.6693388916016
4.80804146693221,-1.44609780273437,14.8296850830078,11.6501852783203
4.81023637453854,-1.52271225585937,14.9637603759766,11.5448404052734
4.81243128214488,-1.59453830566406,15.2654297851562,11.3485158691406
4.81462017898733,-1.84832368164062,15.5240035644531,11.0803652832031
4.81680907582978,-1.89141931152344,15.9453830566406,10.802637890625
4.81899797267223,-2.11647426757812,16.2470524658203,10.6541973876953
4.82240166214706,-2.26970317382813,17.5159793457031,10.2328178955078
4.82580535162189,-2.37025964355469,17.7410343017578,10.0987426025391
4.82920904109672,-2.25533796386719,17.92778203125,10.0029745361328
4.83147670179549,-2.37025964355469,18.0379153076172,9.70609353027344
4.83374436249427,-2.39899006347656,18.1432601806641,9.43315454101563
4.83601202319305,-2.35110603027344,18.1672021972656,9.05965908203125
4.83827880531111,-2.39899006347656,18.1863558105469,8.61433757324219
4.84054558742916,-2.13562788085937,18.1863558105469,8.24563051757812
4.84281236954722,-2.35110603027344,18.2917006835937,7.72369455566406
4.84507825778507,-2.21224233398438,18.3300079101562,7.41244833984375
4.84734414602292,-2.17872351074219,18.3347963134766,7.19697019042969
4.84961003426078,-2.30322199707031,18.3300079101562,7.02937607421875
4.85187529315834,-2.37983645019531,18.1767790039062,6.95276162109375
4.8541405520559,-1.9536685546875,18.2677586669922,6.89530078125
4.85640581095346,-1.68072956542969,18.3539499267578,6.84741674804687
4.85867110511579,-1.75734401855469,18.5263324462891,6.71812985839844
4.86093639927812,-2.04464821777344,18.6364657226563,6.48349809570312
4.86320169344044,-1.85311208496094,18.7561758056641,6.33505759277344
4.86539879087968,-1.72861359863281,19.0339031982422,6.11957944335937
4.86759588831891,-1.58974990234375,19.4409174804687,6.11957944335937
4.86979298575814,-1.21146604003906,20.149601171875,5.95677373046875
4.87552277189095,-1.39821376953125,25.206155078125,3.92649072265625
4.88125255802376,-1.42215578613281,25.28276953125,3.69664736328125
4.88698234415656,-1.35990654296875,25.4886708740234,3.62482131347656
4.8893233963484,-1.35511813964844,25.5365549072266,3.45243879394531
4.89166444854024,-1.34554133300781,25.7951286865234,3.37582434082031
4.89400550073208,-1.40779057617187,26.3122762451172,3.1028853515625
4.89631515969475,-1.79086284179687,26.4942355712891,2.85388837890625
4.89862481865742,-1.69509477539062,26.7240789306641,2.60010300292969
4.9009344776201,-1.33117612304687,26.8964614501953,2.51391174316406
4.90321097604675,-1.65199914550781,26.7049253173828,2.27449157714844
4.9054874744734,-1.38384855957031,26.9108266601562,2.21703073730469
4.90776397290006,-1.06781394042969,27.1598236328125,2.16435830078125
4.91003879820388,-0.909796630859375,27.5141654785156,2.17872351074219
4.9123136235077,-0.387860668945312,27.8541421142578,2.00155258789062
4.91458844881151,-0.541089575195312,28.0265246337891,1.8004396484375
4.91686131220127,-0.464475122070312,28.1893303466797,1.55144267578125
4.91913417559102,-0.158017309570312,28.2611563964844,1.26892687988281
4.92140703898077,-0.17238251953125,28.5484605957031,0.943315454101562
4.92367716723598,-0.0909796630859375,29.0703965576172,0.349553442382812
4.92594729549118,0.316034619140625,29.6258513427734,0.0
4.92821742374639,0.799663354492188,29.956251171875,-0.28730419921875
4.93354843698423,0.775721337890625,24.1622831542969,2.38462485351562
4.93887945022207,0.51714755859375,21.9500408203125,3.39497795410156
4.94421046345991,0.502782348632812,20.2932532714844,4.5585599609375
4.94631505428022,0.0383072265625,19.0961524414063,5.97592734375
4.94841964510054,-0.928950244140625,18.2917006835937,6.7037646484375
4.95052423592085,-1.37427175292969,17.4824605224609,6.76601389160156
4.95263188848161,-1.49877023925781,16.3907045654297,6.358999609375
4.95473954104237,-1.34554133300781,15.2079689453125,5.96156213378906
4.95684719360312,-1.302445703125,13.9151000488281,5.35822331542969
4.95895813034358,-1.30723410644531,12.6461731689453,4.826710546875
4.96106906708403,-1.16358200683594,11.3868230957031,4.35744702148437
4.96318000382448,-1.27371528320312,10.1274730224609,4.07014282226563
4.96529335462743,-1.33596452636719,8.94473740234375,4.05098920898438
4.96740670543038,-1.52750065917969,7.80030900878906,4.35265861816406
4.96952005623334,-1.71903679199219,6.7803791015625,4.89853659667969
4.97169446682361,-1.8770541015625,5.68862314453125,5.33906970214844
4.97386887741388,-2.05901342773437,4.49631071777344,5.90410129394531
4.97604328800415,-2.09732065429687,3.29920988769531,6.53138212890625
4.97820977897998,-2.04943662109375,2.20745393066406,7.53215842285156
4.98037626995582,-1.9536685546875,1.20667763671875,8.61433757324219
4.98254276093165,-1.76692082519531,0.32561142578125,9.9215716796875
4.9846969481001,-1.27850368652344,-0.47884033203125,11.6884925048828
4.98685113526855,-0.761356127929687,-1.29765729980469,13.5368161865234
4.989005322437,-0.383072265625,-1.82917006835937,15.5000615478516
4.991146478259,-0.0383072265625,-2.01591779785156,17.1568490966797
4.99328763408099,0.464475122070312,-2.10210905761719,17.5255561523437
4.99542878990299,0.36391865234375,-2.08774384765625,16.4290117919922
4.99755684916587,0.407014282226562,-1.74297880859375,14.5854765136719
4.99968490842874,0.124498486328125,-1.08217915039062,12.6557499755859
5.00181296769162,-0.0383072265625,0.076614453125,11.8273562011719
5.00399974850759,0.612915625,1.39342536621094,12.5887123291016
5.00618652932355,1.74297880859375,2.55700737304687,14.9972791992187
5.00837331013952,2.7964275390625,3.67270534667969,18.7753294189453
5.01071165193639,3.85945307617187,5.00388146972656,23.6595008056641
5.01304999373326,4.93684382324219,7.42681354980469,29.6258513427734
5.01538833553013,5.72693037109375,11.0803652832031,35.3527817138672
5.0177295006777,5.64552751464844,14.3843635742187,38.7956437011719
5.02007066582526,4.17069929199219,16.5822406982422,39.1547739501953
5.02241183097283,3.07415493164062,16.931794140625,36.9042243896484
5.02460972235738,1.838746875,16.2135336425781,33.633744921875
5.02680761374194,0.162805712890625,16.1081887695312,32.1541282958984
5.02900550512649,-0.569819995117188,14.7818010498047,33.7055709716797
5.03120266213604,-0.5746083984375,10.7260234375,34.9505558349609
5.0333998191456,0.143652099609375,4.70221206054687,33.2602494628906
5.03559697615515,0.450109912109375,-0.943315454101562,27.9403333740234
5.03779465410654,0.0718260498046875,-4.69742365722656,19.7377984863281
5.03999233205794,-0.2681505859375,-7.15387456054687,11.5592056152344
5.04219001000934,-0.55545478515625,-9.29429084472656,5.52581743164062
5.0443878423661,-0.63206923828125,-10.8409451171875,1.69988317871094
5.04658567472287,-0.737414111328125,-11.7076461181641,-0.4213794921875
5.04878350707963,-0.76614453125,-11.8943938476563,-1.58496149902344
5.05098133542165,-0.493205541992187,-11.3197854492187,-2.32237561035156
5.05317916376367,-0.742202514648437,-10.3860468017578,-2.93050283203125
5.05537699210569,-1.32159931640625,-9.54328781738281,-3.064578125
5.06523899001694,0.7278373046875,2.74375510253906,6.15309826660156
5.07510098792819,0.05746083984375,3.92649072265625,4.23294853515625
5.08496298583944,-0.565031591796875,4.826710546875,0.6512228515625
5.08707634206774,-1.31202250976562,5.42526096191406,-3.47159240722656
5.08918969829603,-2.13562788085937,5.77002600097656,-7.07247170410156
5.09130305452433,-2.63362182617187,6.14830986328125,-9.12190832519531
5.09341485758423,-2.81558115234375,6.59363137207031,-9.34217487792969
5.09552666064412,-2.7198130859375,7.22091220703125,-7.94874951171875
5.09763846370402,-2.51391174316406,7.96311472167969,-5.76523759765625
5.09975240174655,-2.31758720703125,8.6957404296875,-3.61045610351562
5.10186633978909,-2.2601263671875,9.47625017089844,-2.03985981445312
5.10398027783162,-2.30801040039062,10.1370498291016,-1.20667763671875
5.10609756873874,-2.38462485351562,10.7212350341797,-0.9576806640625
5.10821485964586,-2.47560451660156,11.1234609130859,-1.07739074707031
5.11033215055298,-2.51391174316406,11.3868230957031,-1.32159931640625
5.11251087982816,-2.51391174316406,11.5113215820312,-1.32159931640625
5.11468960910333,-2.4516625,11.3293622558594,-1.08217915039062
5.11686833837851,-2.4133552734375,10.9031943603516,-0.660799658203125
5.11897998301827,-2.21224233398438,10.3573163818359,-0.2681505859375
5.12109162765803,-1.98718737792969,9.66778630371094,0.0335188232421875
5.12320327229779,-1.67594116210937,8.95431420898437,0.186747729492187
5.12531528066367,-1.302445703125,8.08761320800781,0.0814028564453125
5.12742728902956,-0.967257470703125,7.10120212402344,-0.215478149414062
5.12953929739545,-0.689530078125,6.11479104003906,-0.488417138671875
5.13165033926827,-0.488417138671875,5.09964953613281,-0.694318481445312
5.1337613811411,-0.32561142578125,3.96958635253906,-0.560243188476563
5.13587242301392,-0.05746083984375,2.90177241210937,-0.320823022460937
5.13798304888198,0.1149216796875,1.97282216796875,0.129286889648437
5.14009367475003,0.320823022460937,1.13963999023438,0.751779321289062
5.14220430061809,0.55545478515625,0.430956298828125,1.43173259277344
5.14438018885593,0.694318481445312,-0.13407529296875,2.01591779785156
5.14655607709378,0.723048901367187,-0.603338818359375,2.58573779296875
5.14873196533162,0.8044517578125,-0.9576806640625,3.16034619140625
5.15090856233683,0.86191259765625,-1.34554133300781,3.61045610351562
5.15308515934204,0.876277807617187,-1.5705962890625,4.15633408203125
5.15526175634724,0.866701000976562,-1.68072956542969,4.69263525390625
5.1574390979271,0.909796630859375,-1.84832368164062,5.23851323242187
5.15961643950697,0.9193734375,-1.93930334472656,5.71256516113281
5.16179378108683,0.842758984375,-2.14041628417969,5.86579406738281
5.16383194395576,0.742202514648437,-2.3367408203125,5.899312890625
5.16587010682468,0.7278373046875,-2.54743056640625,5.61679709472656
5.16790826969361,0.565031591796875,-2.70065947265625,5.23372482910156
5.16994526047052,0.3447650390625,-2.74375510253906,4.76924970703125
5.17198225124743,0.258573779296875,-2.73417829589844,4.53940634765625
5.17401924202434,0.17238251953125,-2.54264216308594,4.26646735839844
5.1762079162865,0.05746083984375,-2.30322199707031,4.1754876953125
5.17839659054866,-0.0622492431640625,-2.00634099121094,4.11802685546875
5.18058526481082,-0.100556469726563,-1.74297880859375,4.08929643554688
5.18277631211984,-0.215478149414062,-1.47961662597656,4.16112248535156
5.18496735942887,-0.392649072265625,-1.27850368652344,3.94085593261719
5.18715840673789,-0.699106884765625,-1.0342951171875,3.50989963378906
5.18934955409032,-0.9576806640625,-0.809240161132812,3.04063610839844
5.19154070144275,-1.21625444335937,-0.550666381835937,2.50912333984375
5.19373184879518,-1.455674609375,-0.296881005859375,1.94409174804687
5.19592298139066,-1.62805712890625,-0.119710083007812,1.39342536621094
5.19811411398614,-1.74776721191406,0.086191259765625,1.05344873046875
5.20030524658162,-1.71903679199219,0.292092602539062,0.718260498046875
5.202496424533,-1.72861359863281,0.282515795898438,0.454898315429687
5.20468760248439,-1.58974990234375,0.239420166015625,0.292092602539062
5.20687878043577,-1.40779057617187,0.359130249023437,0.167594116210937
5.20905104122136,-1.1875240234375,0.349553442382812,0.292092602539062
5.21122330200695,-0.952892260742187,0.244208569335937,0.450109912109375
5.21339556279254,-0.608127221679687,0.205901342773437,0.450109912109375
5.21554213848699,-0.316034619140625,0.15322890625,0.383072265625
5.21768871418143,-0.0430956298828125,-0.0047884033203125,0.292092602539062
5.21983528987587,0.3447650390625,-0.253785375976562,0.215478149414062
5.22525382069185,3.10767375488281,-2.13083947753906,-0.258573779296875
5.23067235150782,3.12682736816406,-2.18830031738281,-0.196324536132812
5.23609088232379,3.00711728515625,-2.31279880371094,-0.258573779296875
5.23827866965017,2.86346518554687,-2.38462485351562,-0.28730419921875
5.24046645697655,2.73417829589844,-2.43729729003906,-0.2681505859375
5.24265424430293,2.54743056640625,-2.44687409667969,-0.301669409179687
5.24484518668575,2.32237561035156,-2.42772048339844,-0.354341845703125
5.24703612906856,2.068590234375,-2.375048046875,-0.368707055664062
5.24922707145138,1.77170922851562,-2.32716401367187,-0.373495458984375
5.25134740473047,1.48919343261719,-2.27927998046875,-0.435744702148437
5.25346773800955,1.1875240234375,-2.2601263671875,-0.450109912109375
5.25558807128863,0.928950244140625,-2.17872351074219,-0.45968671875
5.2576338128251,0.627280834960937,-2.13083947753906,-0.40222587890625
5.25967955436156,0.40222587890625,-2.06380183105469,-0.311246215820312
5.26172529589802,0.17238251953125,-2.04943662109375,-0.277727392578125
5.26382779492147,0.0239420166015625,-1.98718737792969,-0.215478149414062
5.26593029394491,-0.181959326171875,-1.92972653808594,-0.110133276367187
5.26803279296835,-0.373495458984375,-1.84832368164062,-0.09576806640625
5.27013630110637,-0.560243188476563,-1.78607443847656,-0.129286889648437
5.2722398092444,-0.703895288085937,-1.74776721191406,-0.1149216796875
5.27434331738242,-0.86191259765625,-1.65678754882812,-0.076614453125
5.27641409233902,-1.00556469726562,-1.5705962890625,-0.009576806640625
5.27848486729562,-1.14442839355469,-1.4939818359375,0.167594116210937
5.28055564225222,-1.23540805664062,-1.46046301269531,0.167594116210937
5.28259216438764,-1.40300217285156,-1.4173673828125,0.296881005859375
5.28462868652305,-1.52750065917969,-1.24498486328125,0.301669409179687
5.28666520865847,-1.62805712890625,-1.16358200683594,0.383072265625
5.28870190861507,-1.69509477539062,-1.05344873046875,0.4213794921875
5.29073860857167,-1.81959326171875,-0.842758984375,0.378283862304687
5.29277530852826,-1.89141931152344,-0.660799658203125,0.435744702148437
5.29487977337201,-1.96324536132812,-0.474051928710937,0.430956298828125
5.29698423821576,-2.00155258789062,-0.258573779296875,0.407014282226562
5.29908870305951,-2.07337863769531,0.0239420166015625,0.450109912109375
5.30119461085031,-2.03507141113281,0.349553442382812,0.435744702148437
5.30330051864112,-2.11647426757812,0.59376201171875,0.411802685546875
5.30540642643192,-2.09253225097656,0.885854614257812,0.450109912109375
5.30751167171188,-2.06380183105469,1.07739074707031,0.373495458984375
5.30961691699183,-2.04943662109375,1.38384855957031,0.225054956054687
5.31172216227178,-2.02070620117187,1.62805712890625,0.186747729492187
5.31382526095885,-1.96803376464844,1.79565124511719,0.148440502929687
5.31592835964592,-1.86268889160156,2.00155258789062,0.15322890625
5.31803145833299,-1.762132421875,2.21224233398438,0.05746083984375
5.32013310009732,-1.66636435546875,2.38941325683594,0.0335188232421875
5.32223474186164,-1.58974990234375,2.4899697265625,0.0814028564453125
5.32433638362597,-1.47003981933594,2.59531459960937,0.138863696289063
5.32643728081564,-1.31681091308594,2.681505859375,0.177170922851562
5.32853817800531,-1.21146604003906,2.68629426269531,0.24899697265625
5.33063907519499,-1.16837041015625,2.74375510253906,0.349553442382812
5.33277908561166,-1.01514150390625,2.74375510253906,0.493205541992187
5.33491909602832,-0.885854614257812,2.77727392578125,0.560243188476563
5.33705910644499,-0.703895288085937,2.681505859375,0.646434448242187
5.33917071484343,-0.526724365234375,2.62883342285156,0.7278373046875
5.34128232324186,-0.330399829101562,2.49954653320312,0.622492431640625
5.3433939316403,-0.220266552734375,2.34631762695312,0.531512768554687
5.34550551502789,-0.0335188232421875,2.23618435058594,0.387860668945312
5.34761709841548,0.15322890625,2.06380183105469,0.359130249023437
5.34972868180306,0.320823022460937,1.915361328125,0.239420166015625
5.3518403620331,0.502782348632812,1.63763393554687,0.09576806640625
5.35395204226313,0.679953271484375,1.49877023925781,0.0526724365234375
5.35606372249317,0.8044517578125,1.1875240234375,-0.0143652099609375
5.35813952907954,0.933738647460937,0.97683427734375,0.0718260498046875
5.36021533566591,1.09654436035156,0.775721337890625,0.177170922851562
5.36229114225228,1.20188923339844,0.565031591796875,0.076614453125
5.36439967784255,1.32638771972656,0.316034619140625,0.105344873046875
5.36650821343283,1.35511813964844,0.186747729492187,0.047884033203125
5.3686167490231,1.39821376953125,-0.009576806640625,0.0814028564453125
5.37072862076789,1.4939818359375,-0.21068974609375,-0.009576806640625
5.37284049251268,1.52750065917969,-0.354341845703125,-0.0239420166015625
5.37495236425747,1.55144267578125,-0.512359155273437,-0.110133276367187
5.37706489208951,1.58017309570312,-0.622492431640625,-0.09576806640625
5.37917741992154,1.59453830566406,-0.770932934570312,-0.15322890625
5.38128994775358,1.59932670898438,-0.90021982421875,-0.17238251953125
5.38340240700923,1.63284553222656,-0.967257470703125,-0.0526724365234375
5.38551486626487,1.58974990234375,-1.08696755371094,-0.0383072265625
5.38762732552052,1.58974990234375,-1.10612116699219,0.01915361328125
5.38973979248015,1.56101948242187,-1.13963999023438,0.129286889648437
5.39185225943978,1.50834704589844,-1.13006318359375,0.167594116210937
5.39396472639941,1.44130939941406,-1.13963999023438,0.272938989257812
5.39618538080479,1.43173259277344,-1.13963999023438,0.464475122070312
5.39840603521017,1.39821376953125,-1.1109095703125,0.55545478515625
5.40062668961556,1.34554133300781,-1.12527478027344,0.74699091796875
5.40281405756261,1.32159931640625,-1.08217915039062,0.814028564453125
5.40500142550966,1.20667763671875,-1.05823713378906,0.93852705078125
5.4071887934567,1.15400520019531,-1.02950671386719,1.00556469726562
5.40945011214161,1.07739074707031,-1.00077629394531,0.928950244140625
5.41171143082651,1.03908352050781,-0.933738647460937,0.924161840820312
5.41397274951141,0.9193734375,-0.866701000976562,0.837970581054687
5.41623453038164,0.818816967773437,-0.799663354492188,0.790086547851562
5.41849631125186,0.723048901367187,-0.770932934570312,0.809240161132812
5.42075809212209,0.646434448242187,-0.660799658203125,0.833182177734375
5.42302036447452,0.5746083984375,-0.627280834960937,0.833182177734375
5.42528263682695,0.531512768554687,-0.584185205078125,0.93852705078125
5.42754490917938,0.483628735351562,-0.483628735351562,0.90021982421875
5.4297731759437,0.40222587890625,-0.4979939453125,0.948103857421875
5.43200144270802,0.387860668945312,-0.416591088867187,0.928950244140625
5.43422970947234,0.373495458984375,-0.416591088867187,0.871489404296875
5.43642105772538,0.316034619140625,-0.32561142578125,0.699106884765625
5.43861240597842,0.316034619140625,-0.24899697265625,0.63206923828125
5.44080375423146,0.244208569335937,-0.21068974609375,0.536301171875
5.44626917938881,0.253785375976562,0.3064578125,0.871489404296875
5.45173460454616,0.186747729492187,0.354341845703125,0.890643017578125
5.45720002970351,0.225054956054687,0.368707055664062,0.928950244140625
5.45938521752903,0.17238251953125,0.368707055664062,0.86191259765625
5.46157040535454,0.129286889648437,0.392649072265625,0.751779321289062
5.46375559318006,0.0622492431640625,0.383072265625,0.761356127929687
5.46930411908608,-0.0430956298828125,0.32561142578125,0.464475122070312
5.4748526449921,-0.0814028564453125,0.359130249023437,0.51714755859375
5.48040117089813,-0.076614453125,0.392649072265625,0.378283862304687
5.48266527528181,-0.129286889648437,0.296881005859375,0.244208569335937
5.48492937966548,-0.148440502929687,0.272938989257812,0.09576806640625
5.48719348404916,-0.177170922851562,0.162805712890625,0.047884033203125
5.48945610774708,-0.272938989257812,0.009576806640625,0.067037646484375
5.491718731445,-0.292092602539062,-0.158017309570312,0.105344873046875
5.49398135514291,-0.368707055664062,-0.244208569335937,0.28730419921875
5.49621270930958,-0.426167895507812,-0.3064578125,0.617704028320312
5.49844406347624,-0.502782348632812,-0.383072265625,0.828393774414062
5.5006754176429,-0.5746083984375,-0.426167895507812,1.02950671386719
5.50287575537077,-0.684741674804688,-0.51714755859375,1.23540805664062
5.50507609309863,-0.775721337890625,-0.536301171875,1.24019645996094
5.5072764308265,-0.770932934570312,-0.63206923828125,1.22583125
5.50947565858258,-0.833182177734375,-0.6512228515625,1.18273562011719
5.51167488633865,-0.890643017578125,-0.694318481445312,1.07739074707031
5.51387411409473,-0.871489404296875,-0.790086547851562,0.852335791015625
5.51607286219586,-0.90021982421875,-0.780509741210937,0.70868369140625
5.51827161029699,-0.847547387695312,-0.742202514648437,0.584185205078125
5.52047035839812,-0.799663354492188,-0.76614453125,0.454898315429687
5.52599973149925,0.0718260498046875,-0.560243188476563,1.11569797363281
5.53152910460038,0.0814028564453125,-0.63206923828125,1.29765729980469
5.53705847770151,0.177170922851562,-0.6512228515625,1.455674609375
5.53924851133866,0.277727392578125,-0.699106884765625,1.56580788574219
5.54143854497581,0.339976635742188,-0.660799658203125,1.58974990234375
5.54362857861297,0.430956298828125,-0.67037646484375,1.64242233886719
5.54582014360862,0.474051928710937,-0.7278373046875,1.74297880859375
5.54801170860428,0.45968671875,-0.76614453125,1.84832368164062
5.55020327359993,0.493205541992187,-0.876277807617187,1.8770541015625
5.55239885508865,0.464475122070312,-0.86191259765625,2.02549460449219
5.55459443657737,0.469263525390625,-0.814028564453125,2.25533796386719
5.55679001806608,0.493205541992187,-0.770932934570312,2.57616098632812
5.55898721012337,0.44053310546875,-0.76614453125,2.90177241210937
5.56118440218066,0.45968671875,-0.770932934570312,3.3327287109375
5.56338159423795,0.545877978515625,-0.67037646484375,3.92170231933594
5.56556834141677,0.59376201171875,-0.6512228515625,4.56813676757812
5.56775508859559,0.426167895507812,-0.694318481445312,5.03261188964844
5.5699418357744,0.349553442382812,-0.78529814453125,5.286397265625
5.57212856168586,0.124498486328125,-0.790086547851562,5.4013189453125
5.57431528759732,-0.086191259765625,-0.86191259765625,5.27682045898437
5.57650201350877,-0.205901342773437,-0.756567724609375,5.516240625
5.57868871034037,-0.0335188232421875,-0.411802685546875,6.26801994628906
5.58087540717196,0.3447650390625,0.36391865234375,7.66623371582031
5.58306210400356,0.74699091796875,1.21146604003906,9.69651672363281
5.5854774983178,0.86191259765625,2.01112939453125,12.3636573730469
5.58789289263203,1.03908352050781,2.72460148925781,15.0451632324219
5.59030828694627,0.603338818359375,3.51947644042969,17.0131969970703
5.59272999603915,0.0047884033203125,4.07493122558594,15.1169892822266
5.59515170513204,0.301669409179687,4.51546433105469,12.1673328369141
5.59757341422493,0.857124194335937,5.24330163574219,12.7084224121094
5.59992815152961,1.77170922851562,6.08606062011719,15.6868092773437
5.60228288883429,2.7964275390625,6.63672700195312,17.9421472412109
5.60463762613897,3.47638081054687,7.15866296386719,17.2669823730469
5.60698445567456,3.59130249023437,8.30787976074219,14.4609780273437
5.60933128521015,3.20344182128906,10.2615483154297,12.0093155273437
5.61167811474574,3.05978972167969,12.1529676269531,10.0221281494141
5.61395778043584,3.21301862792969,13.8193319824219,8.39407102050781
5.61623744612595,3.1794998046875,15.5910412109375,8.48983908691406
5.61851711181605,3.13640417480469,17.8798979980469,10.8600987304687
5.62079288373446,2.62883342285156,20.9540529296875,14.6716677734375
5.62306865565287,1.65678754882812,24.1383411376953,18.1719906005859
5.62534442757128,0.220266552734375,27.5764147216797,20.0825635253906
5.62761892312249,-1.12527478027344,31.6657111572266,20.4129633544922
5.62989341867371,-2.46602770996094,37.1101257324219,19.0099611816406
5.63216791422492,-3.60566770019531,43.8091019775391,16.165649609375
5.64573017892761,-3.19865341796875,21.8973683837891,2.87783039550781
5.65929244363029,-4.2521021484375,21.5047193115234,2.82036955566406
5.67285470833297,-5.46356818847656,21.2461455322266,2.61446821289062
5.67504219634296,-6.63193859863281,21.2078383056641,2.4516625
5.67722968435294,-7.738059765625,21.1503774658203,2.11168586425781
5.67941717236292,-8.56166513671875,21.0929166259766,1.92493813476562
5.68160637999096,-9.24161840820312,21.3227599853516,2.26491477050781
5.683795587619,-9.32302126464844,21.3467020019531,2.9496564453125
5.68598479524703,-9.35175168457031,20.9875717529297,3.54341845703125
5.68817608018627,-8.78193168945312,20.1400243652344,3.82593425292969
5.69036736512551,-7.94396110839844,19.6372420166016,4.66869323730469
5.69255865006475,-6.97670363769531,19.0530568115234,5.21457121582031
5.69475320024921,-5.98550415039062,18.4592947998047,5.61200869140625
5.69694775043368,-4.96557424316406,17.8128603515625,5.58327827148437
5.69914230061814,-3.82114584960937,17.2717707763672,5.81791003417969
5.70139818305087,-2.82515795898437,16.6205479248047,6.09563742675781
5.70365406548359,-1.84353527832031,16.1991684326172,6.22492431640625
5.70590994791632,-0.818816967773437,15.6628672607422,6.60320817871094
5.70822525455695,-0.205901342773437,15.2271225585937,6.73249506835937
5.71054056119758,0.45968671875,15.093047265625,6.63193859863281
5.71285586783821,1.02950671386719,14.8727807128906,6.47870969238281
5.71510014713509,1.31202250976562,14.5758997070312,6.27280834960937
5.71734442643196,1.40300217285156,14.2550766845703,6.0908490234375
5.71958870572883,1.55144267578125,14.1976158447266,6.04775339355469
5.72177959071147,1.4173673828125,14.0060797119141,5.746083984375
5.72397047569411,1.35032973632813,13.6804682861328,5.12359155273437
5.72616136067675,1.28329208984375,13.2638771972656,4.74530769042969
5.72834560156216,1.23061965332031,13.0771294677734,4.49631071777344
5.73052984244757,0.866701000976562,13.3979524902344,4.39096584472656
5.73271408333299,0.335188232421875,13.4649901367187,4.35265861816406
5.73489758007777,-0.15322890625,12.9717845947266,4.57292517089844
5.73708107682256,-0.799663354492188,12.6222311523437,4.80755693359375
5.73926457356735,-1.42215578613281,12.2343704833984,5.20499440917969
5.74144805468714,-2.09253225097656,12.0667763671875,5.42526096191406
5.74363153580693,-2.92571442871094,12.0811415771484,5.31991608886719
5.74581501692672,-3.754108203125,12.1960632568359,4.89374819335937
5.74799846451787,-4.53940634765625,12.3540805664062,4.61602080078125
5.75018191210901,-5.33428129882812,12.6126543457031,4.23773693847656
5.75236535970016,-5.90888969726563,12.8377093017578,3.97916315917969
5.75683218028393,-5.68862314453125,13.9486188720703,2.90656081542969
5.76129900086771,-4.97515104980469,14.0395985351562,3.18907661132813
5.76576582145149,-4.19464130859375,14.1066361816406,3.31836350097656
5.76799553200921,-3.3710359375,14.1305781982422,3.39976635742187
5.77022524256694,-2.55221896972656,14.173673828125,3.54341845703125
5.77245495312467,-1.67594116210937,14.3125375244141,3.72537778320312
5.77465711094801,-0.814028564453125,14.5184388671875,4.0988732421875
5.77685926877137,0.086191259765625,14.8201082763672,4.57771357421875
5.77906142659472,0.9576806640625,15.0403748291016,5.01345827636719
5.78125645486077,1.75734401855469,15.2558529785156,5.43483776855469
5.78345148312683,2.50433493652344,15.3803514648437,5.84664045410156
5.78564651139289,3.14598098144531,15.4617543212891,6.0908490234375
5.78783919189419,3.754108203125,15.5144267578125,6.25365473632812
5.7900318723955,4.18027609863281,15.5766760009766,6.22013591308594
5.7922245528968,4.54419475097656,15.5670991943359,6.21534750976562
5.79448162131044,4.79798012695312,15.4856963378906,6.25844313964844
5.79673868972407,4.97515104980469,15.3899282714844,6.37336481933594
5.7989957581377,5.00388146972656,15.1122008789062,6.512228515625
5.80125515858258,4.89853659667969,14.8057430664062,6.64630380859375
5.80351455902746,4.64475122070312,14.4322476074219,6.90008918457031
5.80577395947234,4.35744702148437,14.0252333251953,7.24485422363281
5.8080029518226,3.97916315917969,13.6134306396484,7.50821640625
5.81023194417286,3.4859576171875,13.3165496337891,7.88650026855469
5.81246093652312,2.87783039550781,13.0483990478516,8.13549724121094
5.8146587096351,2.21703073730469,12.7371528320312,8.34139858398438
5.81685648274708,1.50834704589844,12.5647703125,8.39407102050781
5.81905425585906,0.814028564453125,12.3780225830078,8.350975390625
5.82125085736731,0.15322890625,12.1625444335937,8.07803640136719
5.82344745887556,-0.550666381835937,12.0715647705078,7.68059892578125
5.8256440603838,-1.149216796875,12.028469140625,7.125144140625
5.8279038885088,-1.6472107421875,11.9231242675781,6.72770666503906
5.83016371663379,-2.07816704101562,11.8656634277344,6.56968935546875
5.83242354475879,-2.47081611328125,11.8034141845703,6.74686027832031
5.83468503363683,-2.79163913574219,11.7794721679688,7.06768330078125
5.83694652251487,-2.93050283203125,11.6980693115234,7.55610043945312
5.83920801139291,-2.99754047851562,11.6932809082031,7.95832631835937
5.84143725949404,-3.01669409179687,11.6310316650391,8.13070883789062
5.84366650759517,-2.96881005859375,11.645396875,8.28393774414062
5.8458957556963,-2.91134921875,11.7315881347656,8.31745656738281
5.84801493229135,-2.60010300292969,11.9135474609375,8.19295808105469
5.85013410888641,-2.42772048339844,12.0715647705078,8.16422766113281
5.85225328548146,-2.13083947753906,12.2726777099609,7.92480749511719
5.85429417599796,-1.74776721191406,12.5168862792969,7.53215842285156
5.85633506651445,-1.40779057617187,12.7898252685547,7.19218178710937
5.85837595703095,-1.04387192382812,13.0148802246094,6.91924279785156
5.86047652229787,-0.689530078125,13.3452800537109,6.71812985839844
5.8625770875648,-0.244208569335937,13.63737265625,6.5505357421875
5.86467765283172,0.162805712890625,13.9725608886719,6.54095893554687
5.86677840874535,0.521935961914062,14.2790187011719,6.63672700195312
5.86887916465898,0.885854614257812,14.6668793701172,6.81389792480469
5.8709799205726,1.2641384765625,14.9637603759766,7.07726010742187
5.87308034841548,1.56101948242187,15.1505081054687,7.41244833984375
5.87518077625835,1.78607443847656,15.3420442382812,7.50342800292969
5.87728120410123,1.90578452148437,15.5144267578125,7.52258161621094
5.87945340988465,1.96803376464844,15.6868092773437,7.48427438964844
5.88162561566808,1.94888015136719,15.8017309570312,7.52737001953125
5.8837978214515,1.87226569824219,15.8448265869141,7.54173522949219
5.88597058637121,1.65678754882812,15.8400381835937,7.48427438964844
5.88814335129091,1.36469494628906,15.8400381835937,7.38850632324219
5.89031611621062,1.01514150390625,15.7586353271484,7.32146867675781
5.89271671879037,0.646434448242187,15.6197716308594,7.32625708007812
5.89511732137013,0.28730419921875,15.5000615478516,7.26400783691406
5.89751792394988,-0.05746083984375,15.4521775146484,7.33104548339844
5.89998150824621,-0.4213794921875,15.3564094482422,7.45075556640625
5.90244509254253,-0.799663354492188,15.2750065917969,7.48427438964844
5.90490867683886,-1.18273562011719,15.0738936523437,7.584830859375
5.9073591792667,-1.42694418945312,14.8584155029297,7.66623371582031
5.90980968169454,-1.72861359863281,14.6812445800781,7.67581052246094
5.91226018412237,-1.89620771484375,14.4897084472656,7.74284816894531
5.91477184155239,-2.07337863769531,14.2311346679687,7.66623371582031
5.9172834989824,-2.17393510742187,14.0587521484375,7.61356127929687
5.91979515641242,-2.25054956054688,13.9103116455078,7.37892951660156
5.92229818787943,-2.31758720703125,13.7906015625,7.22091220703125
5.92480121934644,-2.34152922363281,13.7475059326172,7.13472094726562
5.92730425081345,-2.19308872070312,13.6613146728516,6.98628044433594
5.92980485107387,-2.05422502441406,13.6134306396484,6.971915234375
5.93230545133429,-1.8770541015625,13.5990654296875,6.89051237792969
5.93480605159471,-1.59932670898438,13.6230074462891,7.02458767089844
5.93730633317023,-1.302445703125,13.6565262695312,7.21133540039062
5.93980661474575,-0.995987890625,13.6613146728516,7.39808312988281
5.94230689632127,-0.689530078125,13.7283523193359,7.68538732910156
5.96059690771447,0.411802685546875,14.2838071044922,7.13472094726562
5.97888691910768,0.521935961914062,14.1688854248047,7.125144140625
5.99717693050088,0.627280834960937,14.173673828125,7.0868369140625
6.00422489339149,0.5746083984375,13.3357032470703,6.02859978027344
6.01127285628211,0.512359155273437,13.2495119873047,6.16267507324219
6.01832081917272,0.512359155273437,13.1872627441406,6.16267507324219
6.02081399891448,0.493205541992187,13.0723410644531,6.25365473632812
6.02330717865624,0.430956298828125,12.9526309814453,6.25844313964844
6.02580035839799,0.397437475585937,12.8855933349609,6.25365473632812
6.03173564656532,0.3064578125,12.2583125,5.57370146484375
6.03767093473264,0.354341845703125,12.2343704833984,5.43483776855469
6.04360622289996,0.387860668945312,12.2104284667969,5.49708701171875
6.04595034410221,0.474051928710937,12.1577560302734,5.45877978515625
6.04829446530446,0.521935961914062,12.1481792236328,5.51145222167969
6.05063858650671,0.502782348632812,12.0188923339844,5.72693037109375
6.05298272865081,0.5746083984375,11.9422778808594,5.65510432128906
6.05532687079491,0.5746083984375,11.8034141845703,5.65989272460937
6.057671012939,0.560243188476563,11.7411649414062,5.58806667480469
6.06001518839474,0.4979939453125,11.6406084716797,5.43483776855469
6.06235936385047,0.474051928710937,11.5496288085937,5.42047255859375
6.0647035393062,0.426167895507812,11.4634375488281,5.28160886230469
6.06704767461436,0.349553442382812,11.3916114990234,5.18105239257812
6.06939180992251,0.335188232421875,11.262324609375,5.04697709960938
6.07173594523066,0.320823022460937,11.2144405761719,4.95599743652344
6.07407996454489,0.225054956054687,11.1282493164062,4.80276853027344
6.07642398385913,0.220266552734375,11.0372696533203,4.56334836425781
6.07876800317336,0.1915361328125,10.9223479736328,4.290409375
6.08577934887649,0.205901342773437,9.90241806640625,3.97916315917969
6.09279069457961,0.2681505859375,9.85453403320312,3.83551105957031
6.09980204028274,0.239420166015625,9.80186159667969,3.70143576660156
6.10213894995071,0.239420166015625,9.75876596679687,3.62482131347656
6.10447585961869,0.24899697265625,9.71567033691406,3.53384165039062
6.10681276928666,0.225054956054687,9.68215151367187,3.46201560058594
6.1091491050614,0.196324536132812,9.65342109375,3.39497795410156
6.11148544083614,0.196324536132812,9.64384428710937,3.42370837402344
6.11382177661088,0.177170922851562,9.67257470703125,3.53863005371094
6.11615915009178,0.162805712890625,9.6151138671875,3.62960971679687
6.11849652357268,0.110133276367187,9.61032546386719,3.82114584960937
6.12083389705359,0.13407529296875,9.55765302734375,3.88339509277344
6.12314498467294,0.124498486328125,9.49061538085937,3.97916315917969
6.1254560722923,0.086191259765625,9.41878933105469,3.94085593261719
6.12776715991166,0.100556469726563,9.3086560546875,3.85466467285156
6.1301874308535,0.100556469726563,9.270348828125,3.69185895996094
6.13260770179534,0.0430956298828125,9.16979235839844,3.600879296875
6.13502797273718,0.0335188232421875,9.20331118164062,3.47159240722656
6.13744776727927,-0.009576806640625,9.14585034179687,3.46680400390625
6.13986756182137,-0.01915361328125,9.17936916503906,3.45722719726562
6.14228735636347,-0.01915361328125,9.18415756835937,3.47638081054687
6.14470703719029,-0.047884033203125,9.14585034179687,3.46680400390625
6.14712671801712,-0.100556469726563,9.10754311523437,3.40455476074219
6.14954639884394,-0.158017309570312,9.10275471191406,3.41891997070312
6.1519659254824,-0.181959326171875,9.08360109863281,3.3710359375
6.15438545212085,-0.143652099609375,9.08360109863281,3.4093431640625
6.15680497875931,-0.196324536132812,9.07402429199219,3.44286198730469
6.15919051955792,-0.186747729492187,8.98783303222656,3.36145913085937
6.16157606035654,-0.1915361328125,8.963891015625,3.39497795410156
6.16396160115515,-0.143652099609375,8.91600698242187,3.39497795410156
6.1663129808752,-0.177170922851562,8.80587370605469,3.38061274414062
6.16866436059526,-0.181959326171875,8.80108530273437,3.41891997070312
6.17101574031531,-0.167594116210937,8.74362446289062,3.39018955078125
6.17336632809743,-0.119710083007812,8.657433203125,3.41413156738281
6.17571691587955,-0.0526724365234375,8.68137521972656,3.45243879394531
6.17806750366167,-0.0814028564453125,8.59997236328125,3.47638081054687
6.18405913804751,-0.01915361328125,8.2360537109375,2.29843359375
6.19005077243336,-0.0335188232421875,8.22647690429687,2.18830031738281
6.19604240681921,-0.047884033203125,8.2360537109375,2.25054956054688
6.1984595661074,-0.0143652099609375,8.16422766113281,2.17393510742187
6.20087672539559,-0.0383072265625,8.16901606445312,2.29843359375
6.20329388468378,0.0047884033203125,8.17859287109375,2.44208569335937
6.20564327346415,0.0526724365234375,8.20253488769531,2.48039291992187
6.20799266224453,0.0047884033203125,8.17380446777344,2.58094938964844
6.2103420510249,0.0239420166015625,8.18816967773437,2.57137258300781
6.21276162394157,0.0047884033203125,8.14986245117187,2.50912333984375
6.21518119685823,0.01915361328125,8.13549724121094,2.56179577636719
6.2176007697749,0.0143652099609375,8.18816967773437,2.62883342285156
6.22002637665424,0.047884033203125,8.21211169433594,2.54264216308594
6.22245198353358,0.028730419921875,8.27914934082031,2.60489140625
6.22487759041292,0.0814028564453125,8.3126681640625,2.63841022949219
6.22730360419331,0.105344873046875,8.33661018066406,2.62404501953125
6.22972961797369,0.124498486328125,8.34618698730469,2.69587106933594
6.23215563175408,0.148440502929687,8.37970581054688,2.57137258300781
6.23458173548672,0.143652099609375,8.41322463378906,2.59531459960937
6.23700783921936,0.186747729492187,8.38449421386719,2.59052619628906
6.239433942952,0.225054956054687,8.47068547363281,2.61925661621094
6.24179093481398,0.239420166015625,8.49462749023438,2.60967980957031
6.24414792667596,0.239420166015625,8.48983908691406,2.61446821289062
6.24650491853794,0.258573779296875,8.53772312011719,2.67671745605469
6.24885742201017,0.258573779296875,8.54729992675781,2.70065947265625
6.25120992548239,0.296881005859375,8.51856950683594,2.681505859375
6.25356242895462,0.277727392578125,8.45632026367188,2.7198130859375
6.25591385549541,0.3064578125,8.47068547363281,2.69108266601562
6.25826528203621,0.378283862304687,8.45153186035156,2.681505859375
6.26061670857701,0.36391865234375,8.36534060058594,2.64798703613281
6.26310556035652,0.36391865234375,8.37491740722656,2.63362182617187
6.26559441213604,0.426167895507812,8.30787976074219,2.64798703613281
6.26808326391555,0.45968671875,8.27914934082031,2.59531459960937
6.27057467428882,0.45968671875,8.24084211425781,2.63841022949219
6.27306608466208,0.450109912109375,8.18338127441406,2.58094938964844
6.27555749503535,0.445321508789062,8.14507404785156,2.55700737304687
6.2779077896317,0.435744702148437,8.11155522460937,2.63841022949219
6.28025808422805,0.373495458984375,8.0828248046875,2.71023627929688
6.2826083788244,0.387860668945312,8.06845959472656,2.74375510253906
6.28495825197978,0.397437475585937,8.07324799804687,2.81558115234375
6.28730812513515,0.339976635742188,8.03972917480469,2.82994636230469
6.28965799829053,0.354341845703125,8.04930598144531,2.77248552246094
6.29193297398497,0.263362182617187,8.01099875488281,2.76290871582031
6.29420794967942,0.277727392578125,7.967903125,2.74854350585938
6.29648292537386,0.263362182617187,7.95832631835937,2.681505859375
6.29875714108566,0.234631762695312,7.93917270507812,2.67192905273437
6.30103135679746,0.196324536132812,7.90565388183594,2.73417829589844
6.30330557250927,0.162805712890625,7.94874951171875,2.69587106933594
6.30558063533478,0.105344873046875,7.97747993164062,2.59531459960937
6.30785569816029,0.0622492431640625,7.91523068847656,2.57616098632812
6.31013076098581,0.009576806640625,7.90565388183594,2.50433493652344
6.31592364625327,-0.0047884033203125,7.88650026855469,1.915361328125
6.32171653152074,0.0622492431640625,7.89607707519531,2.04943662109375
6.3275094167882,0.086191259765625,7.92480749511719,2.05901342773437
6.32984635763835,0.129286889648437,7.98226833496094,2.09732065429687
6.3321832984885,0.196324536132812,8.00142194824219,2.20266552734375
6.33452023933865,0.277727392578125,8.07803640136719,2.30322199707031
6.33685873695149,0.272938989257812,8.05888278808594,2.39420166015625
6.33919723456433,0.32561142578125,8.06367119140625,2.4516625
6.34153573217717,0.3447650390625,8.13549724121094,2.40856687011719
6.3438745637744,0.378283862304687,8.11634362792969,2.47560451660156
6.34621339537163,0.373495458984375,8.12113203125,2.39899006347656
6.34855222696886,0.383072265625,8.20253488769531,2.375048046875
6.35083808928711,0.397437475585937,8.21211169433594,2.39420166015625
6.35312395160536,0.450109912109375,8.20732329101562,2.47560451660156
6.35540981392361,0.430956298828125,8.30309135742187,2.51391174316406
6.35769428534559,0.430956298828125,8.28393774414062,2.60489140625
6.35997875676758,0.40222587890625,8.30787976074219,2.681505859375
6.36226322818957,0.36391865234375,8.25520732421875,2.73896669921875
6.36452909939182,0.330399829101562,8.35576379394531,2.834734765625
6.36679497059408,0.320823022460937,8.34139858398438,2.77248552246094
6.36906084179633,0.292092602539062,8.3126681640625,2.83952316894531
6.37132298318088,0.277727392578125,8.25041892089844,2.73417829589844
6.37358512456543,0.2681505859375,8.21690009765625,2.66714064941406
6.37584726594998,0.2681505859375,8.13070883789062,2.61925661621094
6.37810844655979,0.296881005859375,8.09719001464844,2.47560451660156
6.38036962716959,0.282515795898438,8.09240161132812,2.36547124023437
6.3826308077794,0.32561142578125,8.01099875488281,2.20745393066406
6.38489188991916,0.354341845703125,8.02536396484375,2.11647426757812
6.38715297205893,0.36391865234375,7.97269152832031,2.068590234375
6.38941405419869,0.354341845703125,7.95353791503906,2.02549460449219
6.3918209583328,0.392649072265625,7.91044228515625,2.00155258789062
6.39422786246692,0.32561142578125,7.90565388183594,1.95845695800781
6.39663476660103,0.32561142578125,7.88171186523437,1.94888015136719
6.39904555588055,0.330399829101562,7.92480749511719,2.03507141113281
6.40145634516006,0.301669409179687,7.87213505859375,2.08774384765625
6.40386713443957,0.292092602539062,7.88171186523437,2.19787712402344
6.40627229508411,0.335188232421875,7.91044228515625,2.1835119140625
6.40867745572864,0.28730419921875,7.90565388183594,2.19308872070312
6.41108261637318,0.272938989257812,7.891288671875,2.39420166015625
6.41346121115399,0.244208569335937,7.91044228515625,2.40856687011719
6.41583980593481,0.258573779296875,7.97269152832031,2.52348854980469
6.41821840071563,0.239420166015625,7.9295958984375,2.60967980957031
6.42057652962188,0.215478149414062,7.99184514160156,2.60010300292969
6.42293465852813,0.17238251953125,8.01099875488281,2.66235224609375
6.42529278743439,0.15322890625,8.00142194824219,2.61925661621094
6.42764831206547,0.1149216796875,8.02536396484375,2.55221896972656
6.43000383669655,0.067037646484375,8.03494077148437,2.58573779296875
6.43235936132763,0.0335188232421875,8.11155522460937,2.57137258300781
6.43471213096739,0.0239420166015625,8.06367119140625,2.42772048339844
6.43706490060715,-0.009576806640625,8.09719001464844,2.35110603027344
6.43941767024691,-0.0143652099609375,8.07803640136719,2.21703073730469
6.44535476462083,0.0335188232421875,7.96311472167969,1.87226569824219
6.45129185899475,0.0622492431640625,7.89607707519531,1.82438166503906
6.45722895336866,0.0,7.90565388183594,1.85790048828125
6.45957392868333,0.0526724365234375,7.94874951171875,1.84832368164062
6.461918903998,0.028730419921875,7.9295958984375,1.98239897460937
6.46426387931267,0.047884033203125,7.99663354492187,2.0302830078125
6.4666089602046,0.0526724365234375,7.967903125,2.08774384765625
6.46895404109653,0.0718260498046875,7.967903125,2.05901342773437
6.47129912198846,0.100556469726563,7.99184514160156,2.17872351074219
6.47352970125278,0.110133276367187,8.07803640136719,2.12605107421875
6.47576028051711,0.129286889648437,8.0828248046875,2.11168586425781
6.47799085978144,0.0622492431640625,8.14507404785156,2.18830031738281
6.48010371969897,0.0526724365234375,8.197746484375,2.17872351074219
6.48221657961651,0.100556469726563,8.25041892089844,2.17872351074219
6.48432943953404,0.086191259765625,8.25041892089844,2.19787712402344
6.48658621839689,0.0814028564453125,8.32703337402344,2.1452046875
6.48884299725973,0.0909796630859375,8.32703337402344,2.15478149414062
6.49109977612257,0.076614453125,8.37491740722656,2.13083947753906
6.49335788495504,0.067037646484375,8.40364782714844,2.07816704101562
6.4956159937875,0.0718260498046875,8.4658970703125,2.20745393066406
6.49787410261997,0.086191259765625,8.4658970703125,2.15956989746094
6.5001322906625,0.0622492431640625,8.47068547363281,2.20745393066406
6.50239047870504,0.086191259765625,8.50899270019531,2.22660754394531
6.50464866674758,0.0909796630859375,8.504204296875,2.23618435058594
6.50690687665426,0.0239420166015625,8.53293471679688,2.25054956054688
6.50916508656094,0.067037646484375,8.58560715332031,2.24576115722656
6.51142329646762,0.0430956298828125,8.58560715332031,2.16435830078125
6.51368151315599,-0.0047884033203125,8.62870278320312,2.18830031738281
6.51593972984435,-0.028730419921875,8.67658681640625,2.21703073730469
6.51819794653272,-0.05746083984375,8.64785639648438,2.17393510742187
6.52052257728359,-0.09576806640625,8.61433757324219,2.14041628417969
6.52284720803446,-0.0622492431640625,8.63827958984375,2.30322199707031
6.52517183878534,-0.0909796630859375,8.6191259765625,2.23618435058594
6.52749280937996,-0.105344873046875,8.66222160644531,2.31279880371094
6.52981377997457,-0.129286889648437,8.62870278320312,2.28406838378906
6.53213475056919,-0.100556469726563,8.58560715332031,2.25533796386719
6.53789220266339,-0.110133276367187,8.28393774414062,2.10210905761719
6.54364965475759,-0.0430956298828125,8.33182177734375,2.07816704101562
6.54940710685178,-0.0622492431640625,8.36055219726562,1.93930334472656
6.55169279272418,-0.0909796630859375,8.43237824707031,1.86268889160156
6.55397847859658,-0.009576806640625,8.47547387695312,1.79565124511719
6.55626416446898,0.0143652099609375,8.51378110351562,1.74776721191406
6.55854299671725,0.009576806640625,8.57603034667969,1.57538469238281
6.56082182896552,0.05746083984375,8.56645354003906,1.5322890625
6.56310066121378,0.0814028564453125,8.66701000976562,1.56580788574219
6.56537784632663,0.110133276367187,8.72925925292969,1.47482822265625
6.56765503143948,0.0622492431640625,8.80587370605469,1.5322890625
6.56993221655233,0.1149216796875,8.82502731933594,1.50834704589844
6.57220753708184,0.1149216796875,8.83460412597656,1.53707746582031
6.57448285761135,0.1149216796875,8.93037219238281,1.51313544921875
6.57675817814086,0.100556469726563,8.93516059570312,1.48919343261719
6.57909183070163,0.15322890625,8.97346782226562,1.51792385253906
6.58142548326239,0.143652099609375,9.02135185546875,1.47961662597656
6.58375913582316,0.110133276367187,9.05965908203125,1.53707746582031
6.58609025908705,0.15322890625,9.03571706542969,1.59932670898438
6.58842138235094,0.143652099609375,9.08838950195312,1.67115275878906
6.59075250561483,0.1915361328125,9.11233151855469,1.73819040527344
6.59302453740737,0.162805712890625,9.09796630859375,1.75255561523437
6.59529656919991,0.167594116210937,9.13627353515625,1.762132421875
6.59756860099245,0.129286889648437,9.12190832519531,1.73819040527344
6.5997662301157,0.0909796630859375,9.08838950195312,1.762132421875
6.60196385923896,0.129286889648437,9.09317790527344,1.69030637207031
6.60416148836222,0.086191259765625,9.117119921875,1.75255561523437
6.60636095722074,0.100556469726563,9.06444748535156,1.73819040527344
6.60856042607925,0.0909796630859375,9.04529387207031,1.85311208496094
6.61075989493776,0.0814028564453125,9.02614025878906,1.83395847167969
6.61309969452543,0.0718260498046875,8.98304462890625,1.84832368164062
6.6154394941131,0.0909796630859375,8.98304462890625,1.84832368164062
6.61777929370078,0.0814028564453125,8.9255837890625,1.87226569824219
6.62011982636137,0.067037646484375,8.87769975585937,1.95845695800781
6.62246035902196,0.0909796630859375,8.86812294921875,1.85311208496094
6.62480089168255,0.076614453125,8.82981572265625,1.81001645507812
6.62714167456016,0.0383072265625,8.78672009277344,1.79086284179687
6.62948245743777,0.0526724365234375,8.76277807617187,1.71903679199219
6.63182324031538,0.028730419921875,8.6957404296875,1.68551796875
6.63416400876156,0.028730419921875,8.66701000976562,1.65678754882812
6.63650477720773,-0.009576806640625,8.66222160644531,1.55144267578125
6.63884554565391,0.0622492431640625,8.62391437988281,1.52750065917969
6.64118633808012,0.0383072265625,8.55687673339844,1.48919343261719
6.64352713050634,0.028730419921875,8.5425115234375,1.44609780273437
6.64586792293255,-0.009576806640625,8.49941589355469,1.36948334960938
6.64824568427153,0.009576806640625,8.45632026367188,1.33596452636719
6.65062344561051,-0.01915361328125,8.45153186035156,1.37427175292969
6.65300120694948,0.0143652099609375,8.43716665039062,1.34554133300781
6.6553471525875,0.0047884033203125,8.40364782714844,1.31202250976562
6.65769309822551,-0.0047884033203125,8.37491740722656,1.22583125
6.66003904386352,-0.0430956298828125,8.33182177734375,1.27371528320312
6.66589741408921,-0.05746083984375,8.3126681640625,1.28808049316406
6.67175578431491,-0.0622492431640625,8.37012900390625,1.27850368652344
6.6776141545406,-0.067037646484375,8.41322463378906,1.3407529296875
6.68002791370944,-0.1149216796875,8.42280144042969,1.29765729980469
6.68244167287827,-0.119710083007812,8.45632026367188,1.33596452636719
6.68485543204711,-0.09576806640625,8.52814631347656,1.21146604003906
6.68724178382662,-0.1149216796875,8.56166513671875,1.20667763671875
6.68962813560613,-0.15322890625,8.59997236328125,1.17794721679687
6.69201448738564,-0.138863696289063,8.71968244628906,1.17315881347656
6.69436487231403,-0.129286889648437,8.71968244628906,1.08217915039062
6.69671525724241,-0.1149216796875,8.83460412597656,1.13963999023438
6.6990656421708,-0.138863696289063,8.82023891601562,1.08217915039062
6.70141281990517,-0.1149216796875,8.87769975585937,1.15400520019531
6.70375999763955,-0.076614453125,8.93516059570312,1.19710083007812
6.70610717537392,-0.09576806640625,9.01177504882812,1.13006318359375
6.70845364960353,-0.0814028564453125,9.08838950195312,1.14442839355469
6.71080012383313,-0.086191259765625,9.0788126953125,1.07260234375
6.71314659806273,-0.0430956298828125,9.193734375,1.04387192382812
6.71549340790431,-0.0718260498046875,9.24640681152344,1.05344873046875
6.71784021774589,-0.0622492431640625,9.28471403808594,0.986411083984375
6.72018702758748,-0.047884033203125,9.28471403808594,0.9576806640625
6.72250199606622,-0.0239420166015625,9.34217487792969,0.871489404296875
6.72481696454495,0.0047884033203125,9.38048210449219,0.814028564453125
6.72713193302369,-0.0335188232421875,9.423577734375,0.74699091796875
6.73178215893515,-0.05746083984375,9.5384994140625,0.660799658203125
6.73643238484662,-0.129286889648437,9.54807622070313,0.694318481445312
6.74108261075808,-0.138863696289063,9.576806640625,0.665588061523437
6.74342132809749,-0.162805712890625,9.56722983398437,0.684741674804688
6.7457600454369,-0.17238251953125,9.59596025390625,0.699106884765625
6.74809876277632,-0.1915361328125,9.58159504394531,0.751779321289062
6.75043636569515,-0.24899697265625,9.58638344726563,0.646434448242187
6.75277396861399,-0.225054956054687,9.57201823730469,0.67037646484375
6.75511157153283,-0.24899697265625,9.60553706054687,0.612915625
6.75741888777632,-0.24899697265625,9.57201823730469,0.579396801757812
6.75972620401982,-0.239420166015625,9.59596025390625,0.694318481445312
6.76203352026331,-0.263362182617187,9.6151138671875,0.7278373046875
6.76431244609882,-0.253785375976562,9.64384428710937,0.684741674804688
6.76659137193432,-0.263362182617187,9.64384428710937,0.74699091796875
6.76887029776983,-0.2681505859375,9.64384428710937,0.809240161132812
6.77121133694084,-0.282515795898438,9.68693991699219,0.756567724609375
6.77355237611185,-0.272938989257812,9.70130512695312,0.833182177734375
6.77589341528286,-0.301669409179687,9.70130512695312,0.842758984375
6.77819957180412,-0.282515795898438,9.73961235351562,0.86191259765625
6.78050572832539,-0.272938989257812,9.730035546875,0.828393774414062
6.78281188484666,-0.234631762695312,9.75876596679687,0.756567724609375
6.7850826206865,-0.244208569335937,9.78270798339844,0.703895288085937
6.78735335652634,-0.2681505859375,9.74918916015625,0.63206923828125
6.78962409236618,-0.234631762695312,9.74918916015625,0.565031591796875
6.79177914043474,-0.239420166015625,9.80665,0.531512768554687
6.79393418850331,-0.258573779296875,9.78749638671875,0.397437475585937
6.79608923657188,-0.263362182617187,9.75876596679687,0.47884033203125
6.79809043546511,-0.225054956054687,9.7683427734375,0.407014282226562
6.80009163435834,-0.205901342773437,9.75876596679687,0.464475122070312
6.80209283325157,-0.177170922851562,9.76355437011719,0.411802685546875
6.8041233508297,-0.186747729492187,9.77791958007812,0.474051928710937
6.80615386840783,-0.158017309570312,9.76355437011719,0.450109912109375
6.80818438598596,-0.158017309570312,9.75876596679687,0.526724365234375
6.81017845190392,-0.17238251953125,9.78749638671875,0.565031591796875
6.81217251782189,-0.124498486328125,9.75876596679687,0.531512768554687
6.81416658373985,-0.110133276367187,9.78270798339844,0.454898315429687
6.81612352926937,-0.076614453125,9.7683427734375,0.526724365234375
6.81808047479889,-0.0239420166015625,9.68215151367187,0.45968671875
6.82003742032841,-0.0526724365234375,9.6917283203125,0.426167895507812
6.82199352378979,0.009576806640625,9.72045874023437,0.28730419921875
6.82394962725116,0.0383072265625,9.70130512695312,0.272938989257812
6.82590573071254,0.0335188232421875,9.730035546875,0.196324536132812
6.82786149015265,0.067037646484375,9.74440075683594,0.301669409179687
6.82981724959276,0.047884033203125,9.76355437011719,0.272938989257812
6.83177300903287,0.0622492431640625,9.83538041992187,0.258573779296875
6.8337984532603,0.076614453125,9.91678327636719,0.158017309570312
6.83582389748774,0.0814028564453125,9.96466730957031,0.205901342773437
6.83784934171517,0.0622492431640625,9.99339772949219,0.15322890625
6.83987736026986,0.1149216796875,10.0843773925781,0.205901342773437
6.84190537882455,0.15322890625,10.1035310058594,0.1915361328125
6.84393339737924,0.143652099609375,10.1562034423828,0.17238251953125
6.84596350794781,0.186747729492187,10.2184526855469,0.28730419921875
6.84799361851639,0.186747729492187,10.2759135253906,0.1915361328125
6.85002372908497,0.162805712890625,10.2950671386719,0.148440502929687
6.85205524134626,0.158017309570312,10.3573163818359,0.143652099609375
6.85408675360755,0.15322890625,10.3573163818359,0.13407529296875
6.85611826586884,0.100556469726563,10.4099888183594,0.0909796630859375
6.85815106578203,0.09576806640625,10.4099888183594,0.196324536132812
6.86018386569523,0.105344873046875,10.3764699951172,0.220266552734375
6.86221666560843,0.0909796630859375,10.4291424316406,0.335188232421875
6.8643963199053,0.047884033203125,10.3956236083984,0.316034619140625
6.86657597420218,0.0526724365234375,10.419565625,0.330399829101562
6.86875562849905,0.01915361328125,10.4530844482422,0.349553442382812
6.87093738327336,-0.009576806640625,10.3525279785156,0.339976635742188
6.87311913804766,-0.0383072265625,10.3142207519531,0.44053310546875
6.87530089282197,-0.01915361328125,10.3046439453125,0.435744702148437
6.8774868964027,-0.067037646484375,10.3046439453125,0.493205541992187
6.87967289998343,-0.0383072265625,10.2376062988281,0.454898315429687
6.88185890356417,-0.0814028564453125,10.2280294921875,0.584185205078125
6.88404893238361,-0.0718260498046875,10.1992990722656,0.584185205078125
6.88623896120307,-0.0909796630859375,10.1514150390625,0.550666381835937
6.88842899002252,-0.0909796630859375,10.1418382324219,0.665588061523437
6.8906238052786,-0.0718260498046875,10.1322614257812,0.584185205078125
6.89281862053468,-0.076614453125,10.0843773925781,0.588973608398437
6.89501343579076,-0.138863696289063,10.0125513427734,0.502782348632812
6.8972103895668,-0.105344873046875,10.036493359375,0.4213794921875
6.89940734334285,-0.0622492431640625,9.97424411621094,0.387860668945312
6.90160429711889,-0.143652099609375,9.91199487304687,0.320823022460937
6.90365554462323,-0.13407529296875,9.87847604980469,0.335188232421875
6.90570679212757,-0.167594116210937,9.83538041992187,0.282515795898438
6.90775803963191,-0.143652099609375,9.87847604980469,0.21068974609375
6.91310909464495,-0.05746083984375,9.76355437011719,0.301669409179687
6.91846014965798,-0.047884033203125,9.78270798339844,0.282515795898438
6.92381120467101,-0.0430956298828125,9.72045874023437,0.407014282226562
6.92599019490539,-0.0047884033203125,9.75876596679687,0.407014282226562
6.92816918513977,-0.0143652099609375,9.7683427734375,0.387860668945312
