timestamp,accel_x (m/s2),accel_y (m/s2),accel_z (m/s2)
0.00311452875433815,-0.311246215820312,8.95910261230469,0.74699091796875
0.00622905750867631,0.100556469726563,9.93593688964844,-0.426167895507812
0.00934358626301446,0.067037646484375,10.0029745361328,-0.373495458984375
0.0157345605468701,0.0335188232421875,9.98860932617187,-0.411802685546875
0.0221255348307257,0.0383072265625,9.95509050292969,-0.397437475585937
0.0285165091145814,0.05746083984375,10.0173397460938,-0.4213794921875
0.0349107846137144,0.0526724365234375,9.97903251953125,-0.4213794921875
0.0413050601128475,0.09576806640625,9.98860932617187,-0.474051928710937
0.0476993356119806,0.05746083984375,9.9981861328125,-0.435744702148437
0.0540961177300308,0.0622492431640625,9.97903251953125,-0.4213794921875
0.0604928998480811,0.0526724365234375,9.99339772949219,-0.407014282226562
0.0668896819661313,0.028730419921875,10.0077629394531,-0.407014282226562
0.0732882720268909,0.0430956298828125,10.0269165527344,-0.45968671875
0.0796868620876505,0.0430956298828125,10.0173397460938,-0.368707055664062
0.08608545214841,0.05746083984375,9.98382092285156,-0.44053310546875
0.0924893738063967,0.028730419921875,9.99339772949219,-0.44053310546875
0.0988932954643834,0.0430956298828125,10.0077629394531,-0.378283862304687
0.10529721712237,0.09576806640625,10.0029745361328,-0.32561142578125
0.111703443467851,0.0383072265625,10.0269165527344,-0.32561142578125
0.118109669813331,0.01915361328125,10.0029745361328,-0.373495458984375
0.124515896158812,0.067037646484375,10.0269165527344,-0.378283862304687
0.134128220974352,0.0239420166015625,10.0077629394531,-0.454898315429687
0.143740545789891,-0.01915361328125,10.0077629394531,-0.445321508789062
0.153352870605431,0.0718260498046875,9.99339772949219,-0.488417138671875
0.172842627983907,0.009576806640625,10.036493359375,-0.488417138671875
0.192332385362382,0.0383072265625,10.0029745361328,-0.502782348632812
0.211822142740857,0.0047884033203125,10.0125513427734,-0.512359155273437
0.218370413465683,0.01915361328125,10.0077629394531,-0.512359155273437
0.224918684190508,0.0383072265625,10.0317049560547,-0.4979939453125
0.231466954915334,0.047884033203125,9.97903251953125,-0.512359155273437
0.238019552137558,0.0335188232421875,9.98860932617187,-0.5746083984375
0.244572149359783,0.0239420166015625,10.0221281494141,-0.450109912109375
0.251124746582008,0.0814028564453125,9.98860932617187,-0.488417138671875
0.257682698730444,0.0239420166015625,9.98860932617187,-0.445321508789062
0.26424065087888,0.047884033203125,9.9981861328125,-0.474051928710937
0.270798603027316,0.0239420166015625,9.9981861328125,-0.483628735351562
0.277358718912732,0.028730419921875,10.0173397460938,-0.502782348632812
0.283918834798148,0.028730419921875,9.96945571289062,-0.4979939453125
0.290478950683564,0.0814028564453125,9.97424411621094,-0.435744702148437
0.297042011121931,0.0143652099609375,9.98382092285156,-0.435744702148437
0.303605071560298,0.0383072265625,9.98860932617187,-0.47884033203125
0.310168131998665,0.0,10.0317049560547,-0.512359155273437
0.316733392089806,0.0143652099609375,9.94551369628906,-0.45968671875
0.323298652180947,0.0526724365234375,9.92636008300781,-0.45968671875
0.329863912272089,0.009576806640625,9.95509050292969,-0.45968671875
0.346377671739309,0.01915361328125,9.94551369628906,-0.512359155273437
0.36289143120653,0.0430956298828125,9.95030209960937,-0.502782348632812
0.379405190673751,0.0383072265625,9.96466730957031,-0.44053310546875
0.386033783121666,0.047884033203125,9.97903251953125,-0.483628735351562
0.392662375569581,0.028730419921875,9.99339772949219,-0.407014282226562
0.399290968017496,0.067037646484375,9.97903251953125,-0.392649072265625
0.405923922987109,0.0383072265625,9.97903251953125,-0.392649072265625
0.412556877956722,0.0239420166015625,9.97424411621094,-0.378283862304687
0.419189832926335,0.0143652099609375,9.95030209960937,-0.416591088867187
0.425886136203241,0.0622492431640625,9.97424411621094,-0.368707055664062
0.432582439480148,0.067037646484375,9.97424411621094,-0.359130249023437
0.439278742757054,0.0430956298828125,9.98382092285156,-0.407014282226562
0.445977255669376,0.0143652099609375,9.9981861328125,-0.435744702148437
0.452675768581699,0.0430956298828125,9.96945571289062,-0.397437475585937
0.459374281494021,0.0622492431640625,9.96945571289062,-0.488417138671875
0.466074491129438,0.0383072265625,9.9981861328125,-0.488417138671875
0.472774700764854,0.01915361328125,9.93593688964844,-0.507570751953125
0.47947491040027,0.047884033203125,9.94551369628906,-0.526724365234375
0.486176272053915,0.067037646484375,9.96466730957031,-0.4979939453125
0.49287763370756,0.0239420166015625,9.96466730957031,-0.469263525390625
0.499578995361205,0.0047884033203125,9.95509050292969,-0.507570751953125
0.506281383165027,0.01915361328125,9.96945571289062,-0.483628735351562
0.512983770968849,0.067037646484375,9.9981861328125,-0.51714755859375
0.519686158772672,0.01915361328125,9.97903251953125,-0.445321508789062
0.526389670165898,-0.0143652099609375,9.96466730957031,-0.426167895507812
0.533093181559124,0.0622492431640625,9.97424411621094,-0.464475122070312
0.539796692952351,0.0047884033203125,10.0029745361328,-0.435744702148437
0.54650322930218,-0.0143652099609375,9.95987890625,-0.47884033203125
0.553209765652009,-0.0526724365234375,9.94072529296875,-0.488417138671875
0.559916302001838,-0.0430956298828125,9.99339772949219,-0.464475122070312
0.566847388481871,0.0239420166015625,9.96945571289062,-0.502782348632812
0.573778474961903,-0.0143652099609375,9.97424411621094,-0.445321508789062
0.580709561441935,-0.0143652099609375,10.0029745361328,-0.512359155273437
0.587648357774398,-0.028730419921875,9.96466730957031,-0.493205541992187
0.594587154106861,0.0047884033203125,9.99339772949219,-0.469263525390625
0.601525950439324,0.0,9.98382092285156,-0.454898315429687
0.608467648247479,-0.0047884033203125,10.0029745361328,-0.512359155273437
0.615409346055633,-0.009576806640625,10.0221281494141,-0.47884033203125
0.622351043863787,0.01915361328125,9.9981861328125,-0.378283862304687
0.629294339979239,-0.0143652099609375,10.0269165527344,-0.47884033203125
0.636237636094691,0.009576806640625,10.0077629394531,-0.488417138671875
0.643180932210143,0.0430956298828125,9.98860932617187,-0.45968671875
0.650126763156318,0.009576806640625,9.97903251953125,-0.40222587890625
0.657072594102492,0.0047884033203125,9.96466730957031,-0.469263525390625
0.664018425048667,-0.009576806640625,9.99339772949219,-0.44053310546875
0.670966277479224,0.047884033203125,9.97903251953125,-0.454898315429687
0.67791412990978,0.05746083984375,9.96945571289062,-0.47884033203125
0.684861982340337,0.0430956298828125,9.96945571289062,-0.526724365234375
0.723280701470095,0.05746083984375,9.99339772949219,-0.320823022460937
0.761699420599854,0.01915361328125,9.98860932617187,-0.373495458984375
0.800118139729612,-0.028730419921875,9.95030209960937,-0.426167895507812
0.807132481526483,0.0047884033203125,9.95030209960937,-0.407014282226562
0.814146823323353,0.028730419921875,9.99339772949219,-0.435744702148437
0.821161165120223,-0.009576806640625,9.98860932617187,-0.45968671875
0.828180188123698,0.0430956298828125,9.98860932617187,-0.531512768554687
0.835199211127173,-0.009576806640625,9.9981861328125,-0.51714755859375
0.842218234130648,0.028730419921875,9.96945571289062,-0.569819995117188
0.849240175102866,0.01915361328125,9.95987890625,-0.545877978515625
0.856262116075084,0.0430956298828125,9.98382092285156,-0.493205541992187
0.863284057047302,0.0383072265625,9.9981861328125,-0.512359155273437
0.870307605875422,0.0526724365234375,9.98382092285156,-0.488417138671875
0.877331154703543,0.0383072265625,9.97903251953125,-0.536301171875
0.884354703531663,0.0430956298828125,10.0269165527344,-0.560243188476563
0.891441280680096,0.076614453125,9.98382092285156,-0.507570751953125
0.898527857828528,0.0383072265625,10.0077629394531,-0.488417138671875
0.905614434976961,0.0814028564453125,9.98382092285156,-0.493205541992187
0.912779413601093,0.086191259765625,9.90241806640625,-0.445321508789062
0.919944392225226,0.0430956298828125,9.93114848632812,-0.51714755859375
0.927109370849358,0.0909796630859375,9.97424411621094,-0.493205541992187
0.934277009195713,0.0526724365234375,9.94072529296875,-0.469263525390625
0.941444647542068,0.0622492431640625,9.97903251953125,-0.450109912109375
0.948612285888423,0.0909796630859375,9.96945571289062,-0.47884033203125
0.95578157950821,0.086191259765625,9.96945571289062,-0.488417138671875
0.962950873127996,0.09576806640625,9.9215716796875,-0.536301171875
0.970120166747783,0.067037646484375,9.96466730957031,-0.488417138671875
0.97729104760716,0.0718260498046875,9.95987890625,-0.550666381835937
0.984461928466537,0.086191259765625,9.95030209960937,-0.536301171875
0.991632809325914,0.067037646484375,9.95030209960937,-0.4979939453125
0.998805422064628,0.05746083984375,9.97903251953125,-0.44053310546875
1.00597803480334,0.0526724365234375,9.95030209960937,-0.445321508789062
1.01315064754206,0.047884033203125,9.94551369628906,-0.521935961914062
1.02032486824518,-0.009576806640625,9.97903251953125,-0.541089575195312
1.0274990889483,0.05746083984375,9.96466730957031,-0.521935961914062
1.03467330965142,0.0718260498046875,9.97424411621094,-0.469263525390625
1.04184900518093,0.0909796630859375,9.96945571289062,-0.502782348632812
1.04902470071045,0.047884033203125,9.97903251953125,-0.469263525390625
1.05620039623997,0.0430956298828125,9.96945571289062,-0.464475122070312
1.07065227444092,0.0718260498046875,9.96945571289062,-0.416591088867187
1.08510415264187,0.0335188232421875,9.97424411621094,-0.469263525390625
1.09955603084283,0.067037646484375,9.99339772949219,-0.426167895507812
1.1068016836206,0.0383072265625,9.93593688964844,-0.368707055664062
1.11404733639837,0.0335188232421875,9.96945571289062,-0.4213794921875
1.12129298917615,0.009576806640625,9.95509050292969,-0.483628735351562
1.12854056046521,0.0239420166015625,9.93593688964844,-0.445321508789062
1.13578813175427,0.0239420166015625,9.9981861328125,-0.40222587890625
1.14303570304333,0.028730419921875,9.97903251953125,-0.45968671875
1.15028484236625,0.0239420166015625,9.91199487304687,-0.383072265625
1.15753398168917,0.028730419921875,9.93593688964844,-0.397437475585937
1.16478312101209,0.0239420166015625,9.95509050292969,-0.464475122070312
1.1720337477482,0.01915361328125,9.94551369628906,-0.488417138671875
1.17928437448431,0.047884033203125,9.96945571289062,-0.454898315429687
1.18653500122043,0.0383072265625,9.95509050292969,-0.392649072265625
1.19385864423258,0.0383072265625,9.95509050292969,-0.44053310546875
1.20118228724473,0.0383072265625,9.91199487304687,-0.40222587890625
1.20850593025688,0.05746083984375,9.9981861328125,-0.474051928710937
1.21583317602511,0.067037646484375,9.97903251953125,-0.359130249023437
1.22316042179334,0.0526724365234375,9.93114848632812,-0.450109912109375
1.23048766756157,0.0526724365234375,9.95509050292969,-0.392649072265625
1.23781658878552,0.028730419921875,9.9981861328125,-0.397437475585937
1.24514551000948,0.0143652099609375,9.94072529296875,-0.387860668945312
1.25247443123343,0.086191259765625,9.94072529296875,-0.416591088867187
1.25980488913274,0.0526724365234375,9.94072529296875,-0.397437475585937
1.26713534703204,0.0335188232421875,9.89762966308594,-0.454898315429687
1.27446580493135,0.0526724365234375,9.92636008300781,-0.44053310546875
1.28179803192788,0.05746083984375,9.91678327636719,-0.45968671875
1.2891302589244,0.05746083984375,9.91678327636719,-0.387860668945312
1.29646248592093,0.0335188232421875,9.92636008300781,-0.450109912109375
1.3038633729652,0.0814028564453125,9.9215716796875,-0.36391865234375
1.31126426000947,0.05746083984375,9.89762966308594,-0.435744702148437
1.31866514705374,0.0239420166015625,9.93593688964844,-0.464475122070312
1.32606918372909,0.009576806640625,9.93593688964844,-0.430956298828125
1.33347322040443,0.0526724365234375,9.93114848632812,-0.45968671875
1.34087725707978,0.086191259765625,9.95987890625,-0.512359155273437
1.34828759160668,0.0143652099609375,9.95509050292969,-0.435744702148437
1.35569792613358,0.0526724365234375,9.95030209960937,-0.44053310546875
1.36310826066049,0.0335188232421875,9.98382092285156,-0.430956298828125
1.37052313533497,0.0335188232421875,9.93114848632812,-0.4213794921875
1.37793801000945,0.028730419921875,9.96466730957031,-0.426167895507812
1.38535288468393,0.009576806640625,9.96945571289062,-0.521935961914062
1.39276974796518,0.0047884033203125,9.94551369628906,-0.45968671875
1.40018661124642,0.01915361328125,9.94551369628906,-0.416591088867187
1.40760347452767,-0.0335188232421875,9.96945571289062,-0.469263525390625
1.41508128398948,-0.0143652099609375,9.9215716796875,-0.416591088867187
1.42255909345129,-0.009576806640625,9.93114848632812,-0.426167895507812
1.43003690291309,0.0383072265625,9.95509050292969,-0.397437475585937
1.43751719870302,0.0526724365234375,9.96945571289062,-0.407014282226562
1.44499749449295,0.0,9.94551369628906,-0.4213794921875
1.45247779028288,0.01915361328125,9.93114848632812,-0.411802685546875
1.45995986851638,0.0239420166015625,9.95987890625,-0.373495458984375
1.46744194674988,0.009576806640625,9.97424411621094,-0.392649072265625
1.47492402498339,0.0239420166015625,9.98860932617187,-0.368707055664062
1.48240774937575,0.0335188232421875,9.98382092285156,-0.387860668945312
1.4898914737681,0.047884033203125,9.94551369628906,-0.426167895507812
1.49737519816046,0.0335188232421875,9.94551369628906,-0.349553442382812
1.50486064792175,0.028730419921875,9.96945571289062,-0.36391865234375
1.51234609768303,0.0430956298828125,9.96945571289062,-0.407014282226562
1.51983154744432,0.047884033203125,9.94072529296875,-0.3447650390625
1.5274645987681,0.0383072265625,9.95030209960937,-0.311246215820312
1.53509765009188,0.0239420166015625,9.93593688964844,-0.354341845703125
1.54273070141566,0.0239420166015625,9.93114848632812,-0.301669409179687
1.55036611526114,0.0,9.94072529296875,-0.349553442382812
1.55800152910662,0.01915361328125,9.91199487304687,-0.426167895507812
1.5656369429521,0.0047884033203125,9.94072529296875,-0.387860668945312
1.5732739773488,0.0047884033203125,9.99339772949219,-0.4213794921875
1.5809110117455,0.0383072265625,9.95030209960937,-0.44053310546875
1.5885480461422,0.0335188232421875,9.95509050292969,-0.426167895507812
1.59618666115956,0.0622492431640625,9.95509050292969,-0.387860668945312
1.60382527617691,0.01915361328125,9.97424411621094,-0.426167895507812
1.61146389119427,0.0383072265625,9.94072529296875,-0.450109912109375
1.61910401803889,0.0526724365234375,9.96466730957031,-0.454898315429687
1.62674414488351,0.0430956298828125,9.96466730957031,-0.426167895507812
1.63438427172813,0.086191259765625,9.97903251953125,-0.426167895507812
1.64202594056493,0.01915361328125,9.97424411621094,-0.430956298828125
1.64966760940173,0.0,9.95987890625,-0.368707055664062
1.65730927823854,0.0430956298828125,9.95987890625,-0.349553442382812
1.66495244523072,0.0383072265625,9.96945571289062,-0.373495458984375
1.6725956122229,0.0526724365234375,9.9981861328125,-0.359130249023437
1.68023877921508,0.0526724365234375,9.94551369628906,-0.397437475585937
1.69946756195704,0.028730419921875,9.98860932617187,-0.383072265625
1.718696344699,0.067037646484375,10.0173397460938,-0.416591088867187
1.73792512744096,0.0335188232421875,9.98382092285156,-0.40222587890625
1.74564375320051,0.01915361328125,9.99339772949219,-0.339976635742188
1.75336237896005,0.01915361328125,9.97903251953125,-0.383072265625
1.7610810047196,0.028730419921875,9.98382092285156,-0.40222587890625
1.76880148768401,0.0143652099609375,10.0077629394531,-0.383072265625
1.77652197064842,0.0143652099609375,9.99339772949219,-0.359130249023437
1.78424245361283,0.047884033203125,9.99339772949219,-0.392649072265625
1.791964479546,0.0335188232421875,9.98382092285156,-0.359130249023437
1.79968650547916,0.0047884033203125,9.99339772949219,-0.387860668945312
1.80740853141232,0.047884033203125,9.9981861328125,-0.454898315429687
1.8151321388342,0.0239420166015625,9.97903251953125,-0.435744702148437
1.82285574625607,0.0526724365234375,9.97903251953125,-0.392649072265625
1.83057935367795,-0.009576806640625,10.0077629394531,-0.373495458984375
1.83836849245832,0.01915361328125,9.95030209960937,-0.368707055664062
1.8461576312387,0.009576806640625,10.0077629394531,-0.430956298828125
1.85394677001908,0.0143652099609375,9.9981861328125,-0.349553442382812
1.86174251274911,-0.0047884033203125,9.95030209960937,-0.383072265625
1.86953825547915,-0.0047884033203125,10.0029745361328,-0.40222587890625
1.87733399820918,-0.01915361328125,9.96945571289062,-0.359130249023437
1.88513473931161,0.01915361328125,9.95987890625,-0.311246215820312
1.89293548041405,0.0239420166015625,10.0029745361328,-0.378283862304687
1.90073622151648,-0.0335188232421875,9.98382092285156,-0.426167895507812
1.90853988970224,-0.0143652099609375,9.95987890625,-0.378283862304687
1.91634355788801,0.0335188232421875,9.97424411621094,-0.392649072265625
1.92414722607377,0.01915361328125,9.96466730957031,-0.407014282226562
1.93195255636891,-0.028730419921875,9.98860932617187,-0.426167895507812
1.93975788666404,-0.047884033203125,9.97424411621094,-0.450109912109375
1.94756321695918,-0.047884033203125,9.95987890625,-0.474051928710937
1.95543160769269,-0.047884033203125,9.98860932617187,-0.445321508789062
1.96329999842619,-0.01915361328125,10.0125513427734,-0.502782348632812
1.9711683891597,-0.0143652099609375,10.0077629394531,-0.512359155273437
1.97903924907724,0.009576806640625,9.98382092285156,-0.483628735351562
1.98691010899477,0.0,10.0125513427734,-0.47884033203125
1.99478096891231,0.0430956298828125,9.97903251953125,-0.454898315429687
2.00265366270571,-0.0047884033203125,10.0125513427734,-0.411802685546875
2.0105263564991,0.0047884033203125,9.9981861328125,-0.373495458984375
2.0183990502925,0.009576806640625,9.97903251953125,-0.426167895507812
2.02627328738017,-0.028730419921875,9.98382092285156,-0.450109912109375
2.03414752446785,-0.0143652099609375,10.0556469726563,-0.407014282226562
2.04202176155552,-0.0335188232421875,10.0412817626953,-0.450109912109375
2.04989746359545,0.0047884033203125,10.0125513427734,-0.435744702148437
2.05777316563538,0.0239420166015625,10.0173397460938,-0.502782348632812
2.06564886767531,-0.01915361328125,10.0125513427734,-0.469263525390625
2.0737512738168,0.028730419921875,10.0460701660156,-0.474051928710937
2.08185367995829,0.0,10.0077629394531,-0.512359155273437
2.08995608609978,0.01915361328125,10.036493359375,-0.531512768554687
2.09806212386019,0.0047884033203125,10.0221281494141,-0.550666381835937
2.10616816162061,0.009576806640625,10.0317049560547,-0.51714755859375
2.11427419938103,-0.0239420166015625,10.0508585693359,-0.4979939453125
2.12245576036193,0.009576806640625,10.0508585693359,-0.526724365234375
2.13063732134282,-0.0143652099609375,10.0652237792969,-0.526724365234375
2.13881888232372,0.028730419921875,10.0700121826172,-0.541089575195312
2.14700276003639,0.0239420166015625,10.0891657958984,-0.493205541992187
2.15518663774905,0.0383072265625,10.0795889892578,-0.493205541992187
2.16337051546172,0.0239420166015625,10.0652237792969,-0.507570751953125
2.17156194167699,-0.009576806640625,10.0700121826172,-0.483628735351562
2.17975336789227,0.0718260498046875,10.0556469726563,-0.469263525390625
2.18794479410754,0.0622492431640625,10.0173397460938,-0.531512768554687
2.19620351893393,0.0143652099609375,10.0412817626953,-0.502782348632812
2.20446224376032,0.028730419921875,10.0556469726563,-0.541089575195312
2.21272096858671,0.0239420166015625,10.0556469726563,-0.521935961914062
2.23750186593914,-0.01915361328125,10.0029745361328,-0.45968671875
2.26228276329157,-0.028730419921875,9.9981861328125,-0.512359155273437
2.28706366064399,0.0047884033203125,10.0077629394531,-0.512359155273437
2.31185021782715,0.009576806640625,10.0125513427734,-0.416591088867187
2.33663677501031,0.028730419921875,10.0460701660156,-0.435744702148437
2.36142333219347,0.0430956298828125,10.0460701660156,-0.483628735351562
2.36968767626899,0.0335188232421875,10.0460701660156,-0.464475122070312
2.37795202034451,0.047884033203125,9.98860932617187,-0.47884033203125
2.38621636442004,0.0526724365234375,9.98860932617187,-0.560243188476563
2.40687986517958,0.0335188232421875,9.98860932617187,-0.612915625
2.42754336593912,0.0,9.95987890625,-0.536301171875
2.44820686669867,0.01915361328125,9.95030209960937,-0.565031591796875
2.45647564176377,-0.009576806640625,9.95030209960937,-0.469263525390625
2.46474441682887,0.0,9.99339772949219,-0.507570751953125
2.47301319189397,0.0143652099609375,9.9981861328125,-0.5746083984375
2.48128590391653,-0.009576806640625,9.96945571289062,-0.55545478515625
2.4895586159391,-0.0430956298828125,9.95987890625,-0.474051928710937
2.49783132796166,-0.0335188232421875,9.97903251953125,-0.430956298828125
2.51447262912269,-0.0335188232421875,9.98860932617187,-0.45968671875
2.53111393028371,-0.0430956298828125,9.99339772949219,-0.373495458984375
2.54775523144474,-0.0383072265625,9.99339772949219,-0.387860668945312
2.55609421126244,-0.047884033203125,9.96945571289062,-0.426167895507812
2.56443319108015,-0.0239420166015625,10.0125513427734,-0.416591088867187
2.57277217089785,-0.01915361328125,9.98382092285156,-0.383072265625
2.58111272992562,0.0143652099609375,10.0125513427734,-0.407014282226562
2.58945328895339,0.0047884033203125,9.96945571289062,-0.383072265625
2.59779384798117,0.0047884033203125,10.0029745361328,-0.397437475585937
2.60613600108446,0.0239420166015625,10.0077629394531,-0.430956298828125
2.61447815418776,0.009576806640625,10.0269165527344,-0.397437475585937
2.62282030729105,0.05746083984375,9.99339772949219,-0.426167895507812
2.63116414821987,0.0814028564453125,9.95987890625,-0.493205541992187
2.63950798914869,0.0622492431640625,10.0077629394531,-0.36391865234375
2.64785183007751,0.01915361328125,9.97424411621094,-0.373495458984375
2.65626672884054,0.0526724365234375,9.97903251953125,-0.373495458984375
2.66468162760356,0.086191259765625,9.98382092285156,-0.36391865234375
2.67309652636658,0.0622492431640625,9.91199487304687,-0.407014282226562
2.68151372070252,0.110133276367187,9.96466730957031,-0.373495458984375
2.68993091503845,0.0814028564453125,9.95509050292969,-0.40222587890625
2.69834810937439,0.086191259765625,9.93114848632812,-0.397437475585937
2.70676771625373,0.0909796630859375,9.96466730957031,-0.296881005859375
2.71518732313307,0.086191259765625,9.93593688964844,-0.40222587890625
2.72360693001241,0.0814028564453125,9.94551369628906,-0.320823022460937
2.73202848404887,0.0814028564453125,9.91678327636719,-0.354341845703125
2.74045003808533,0.086191259765625,9.883264453125,-0.40222587890625
2.74887159212179,0.0430956298828125,9.91678327636719,-0.339976635742188
2.75729468663134,0.0814028564453125,9.91199487304687,-0.330399829101562
2.76571778114088,0.100556469726563,9.93114848632812,-0.335188232421875
2.77414087565043,0.0718260498046875,9.87368764648437,-0.320823022460937
2.78286856640563,0.0718260498046875,9.88805285644531,-0.349553442382812
2.79159625716084,0.09576806640625,9.89762966308594,-0.311246215820312
2.80032394791604,0.05746083984375,9.87847604980469,-0.320823022460937
2.80905419314174,0.05746083984375,9.85453403320312,-0.3064578125
2.81778443836743,0.0622492431640625,9.89762966308594,-0.301669409179687
2.82651468359313,0.028730419921875,9.93114848632812,-0.354341845703125
2.83524730414434,0.0430956298828125,9.92636008300781,-0.316034619140625
2.84397992469555,0.0383072265625,9.89762966308594,-0.335188232421875
2.85271254524676,0.0622492431640625,9.89762966308594,-0.397437475585937
2.85513675059615,0.0383072265625,9.91678327636719,-0.36391865234375
2.85756095594554,0.0239420166015625,9.89284125976562,-0.296881005859375
2.85998516129493,0.0143652099609375,9.93114848632812,-0.316034619140625
2.86232848497114,0.009576806640625,9.92636008300781,-0.349553442382812
2.86467180864735,0.0335188232421875,9.92636008300781,-0.282515795898438
2.86701513232356,-0.028730419921875,9.92636008300781,-0.3447650390625
2.86950394585438,0.0526724365234375,9.89284125976562,-0.253785375976562
2.87199275938519,0.0,9.94551369628906,-0.253785375976562
2.87448157291601,0.0143652099609375,9.95987890625,-0.373495458984375
2.87697541785959,0.028730419921875,9.94551369628906,-0.3064578125
2.87946926280317,-0.009576806640625,9.97903251953125,-0.349553442382812
2.88196310774676,0.009576806640625,9.99339772949219,-0.411802685546875
2.90027502343688,-0.0047884033203125,9.96466730957031,-0.244208569335937
2.918586939127,0.0047884033203125,10.0173397460938,-0.335188232421875
2.93689885481712,0.0335188232421875,9.95509050292969,-0.311246215820312
2.9392445271804,0.009576806640625,9.97424411621094,-0.311246215820312
2.94159019954368,0.0,9.97903251953125,-0.316034619140625
2.94393587190697,0.0335188232421875,9.91678327636719,-0.3447650390625
2.94627825325462,0.01915361328125,9.93593688964844,-0.292092602539062
2.94862063460228,-0.028730419921875,9.96945571289062,-0.316034619140625
2.95096301594993,-0.0047884033203125,9.98382092285156,-0.311246215820312
2.95330314295731,-0.028730419921875,9.97903251953125,-0.244208569335937
2.95564326996469,0.028730419921875,9.96466730957031,-0.335188232421875
2.95798339697208,-0.009576806640625,9.98382092285156,-0.339976635742188
2.96032245052025,0.0,9.9981861328125,-0.354341845703125
2.96266150406842,0.0239420166015625,9.96466730957031,-0.392649072265625
2.9650005576166,0.0047884033203125,9.98382092285156,-0.359130249023437
2.97341639035314,0.05746083984375,9.95987890625,-0.36391865234375
2.98183222308968,0.01915361328125,9.98860932617187,-0.36391865234375
2.99024805582623,0.0383072265625,10.0221281494141,-0.335188232421875
2.99266494124289,0.0335188232421875,9.98382092285156,-0.316034619140625
2.99508182665956,0.0335188232421875,9.95509050292969,-0.339976635742188
2.99749871207622,0.047884033203125,9.99339772949219,-0.32561142578125
2.99998670366694,0.01915361328125,10.0269165527344,-0.335188232421875
3.00247469525766,0.067037646484375,9.98860932617187,-0.330399829101562
3.00496268684837,0.047884033203125,9.96945571289062,-0.387860668945312
3.00742040483883,0.009576806640625,9.98860932617187,-0.426167895507812
3.00987812282928,0.0143652099609375,9.9981861328125,-0.383072265625
3.01233584081973,0.0430956298828125,10.0029745361328,-0.40222587890625
3.01476250564178,0.01915361328125,10.036493359375,-0.354341845703125
3.01718917046384,0.0430956298828125,10.0269165527344,-0.3064578125
3.01961583528589,0.0622492431640625,10.0221281494141,-0.263362182617187
3.0220427220589,0.0526724365234375,10.036493359375,-0.301669409179687
3.02446960883191,0.0383072265625,10.0556469726563,-0.272938989257812
3.02689649560492,0.067037646484375,10.0269165527344,-0.277727392578125
3.02932356347601,0.067037646484375,10.0173397460938,-0.292092602539062
3.0317506313471,0.09576806640625,10.0173397460938,-0.272938989257812
3.03417769921819,0.0814028564453125,9.9981861328125,-0.349553442382812
3.04024339754176,0.09576806640625,9.95987890625,-0.311246215820312
3.04630909586532,0.0718260498046875,9.91199487304687,-0.32561142578125
3.05237479418889,0.0335188232421875,9.92636008300781,-0.339976635742188
3.05509934779131,0.0335188232421875,9.93114848632812,-0.349553442382812
3.05782390139373,0.047884033203125,9.9215716796875,-0.320823022460937
3.06054845499616,0.0526724365234375,9.96466730957031,-0.368707055664062
3.06678954915307,0.028730419921875,9.92636008300781,-0.335188232421875
3.07303064330997,-0.009576806640625,9.96945571289062,-0.383072265625
3.07927173746688,0.0143652099609375,9.95509050292969,-0.392649072265625
3.08176431027504,0.0143652099609375,9.99339772949219,-0.282515795898438
3.08425688308319,0.0143652099609375,9.97903251953125,-0.282515795898438
3.08674945589135,0.0143652099609375,9.99339772949219,-0.320823022460937
3.089241540364,-0.0143652099609375,9.98860932617187,-0.330399829101562
3.09173362483666,0.0143652099609375,9.98382092285156,-0.3447650390625
3.09422570930931,0.0047884033203125,9.96466730957031,-0.301669409179687
3.09671708810706,0.028730419921875,9.96945571289062,-0.296881005859375
3.0992084669048,0.0526724365234375,9.97903251953125,-0.339976635742188
3.10169984570254,0.0335188232421875,10.0173397460938,-0.392649072265625
3.10418963149898,0.0,10.0125513427734,-0.354341845703125
3.10667941729542,0.0143652099609375,9.97903251953125,-0.339976635742188
3.10916920309187,0.047884033203125,10.036493359375,-0.282515795898438
3.11165071898814,0.0335188232421875,10.0317049560547,-0.311246215820312
3.11413223488441,0.086191259765625,10.0652237792969,-0.378283862304687
3.11661375078068,0.0718260498046875,10.0460701660156,-0.335188232421875
3.13640306676377,-0.13407529296875,9.85932243652344,-0.474051928710937
3.15619238274687,-0.1149216796875,9.86889924316406,-0.493205541992187
3.17598169872996,-0.143652099609375,9.85453403320312,-0.464475122070312
3.17840645784455,-0.0909796630859375,9.94072529296875,-0.531512768554687
3.18083121695913,-0.110133276367187,9.9215716796875,-0.541089575195312
3.18325597607372,-0.148440502929687,9.94072529296875,-0.59376201171875
3.18560447563969,-0.13407529296875,9.93593688964844,-0.646434448242187
3.18795297520566,-0.143652099609375,9.94551369628906,-0.612915625
3.19030147477164,-0.1149216796875,9.98860932617187,-0.694318481445312
3.19264916357372,-0.167594116210937,9.98382092285156,-0.699106884765625
3.19499685237581,-0.119710083007812,9.97424411621094,-0.689530078125
3.19734454117789,-0.110133276367187,10.0269165527344,-0.67037646484375
3.1996921335173,-0.086191259765625,10.0556469726563,-0.665588061523437
3.20203972585671,-0.0430956298828125,10.0556469726563,-0.608127221679687
3.20438731819612,-0.067037646484375,10.0317049560547,-0.612915625
3.20680302132111,0.0430956298828125,10.0700121826172,-0.588973608398437
3.20921872444611,0.0526724365234375,10.0843773925781,-0.541089575195312
3.21163442757111,0.0718260498046875,10.1178962158203,-0.550666381835937
3.21405069373864,0.100556469726563,10.1083194091797,-0.569819995117188
3.21646695990618,0.0909796630859375,10.1418382324219,-0.51714755859375
3.21888322607372,0.129286889648437,10.1370498291016,-0.545877978515625
3.22129942648605,0.177170922851562,10.1370498291016,-0.526724365234375
3.22371562689838,0.167594116210937,10.1418382324219,-0.502782348632812
3.22613182731072,0.205901342773437,10.1466266357422,-0.45968671875
3.22862180593485,0.177170922851562,10.1418382324219,-0.411802685546875
3.23111178455898,0.225054956054687,10.1609918457031,-0.407014282226562
3.23360176318311,0.330399829101562,10.1322614257812,-0.488417138671875
3.23606380935282,0.263362182617187,10.1178962158203,-0.387860668945312
3.23852585552252,0.28730419921875,10.1226846191406,-0.411802685546875
3.24098790169223,0.301669409179687,10.1226846191406,-0.373495458984375
3.24341906575473,0.282515795898438,10.1035310058594,-0.335188232421875
3.24585022981723,0.311246215820312,10.0939541992188,-0.3064578125
3.24828139387973,0.335188232421875,10.0700121826172,-0.335188232421875
3.25071116796827,0.296881005859375,10.0460701660156,-0.339976635742188
3.25314094205681,0.272938989257812,10.0125513427734,-0.320823022460937
3.25557071614535,0.296881005859375,10.0173397460938,-0.272938989257812
3.25800025043354,0.277727392578125,10.0125513427734,-0.316034619140625
3.26042978472173,0.296881005859375,10.0221281494141,-0.253785375976562
3.26285931900993,0.24899697265625,9.99339772949219,-0.335188232421875
3.26528880034673,0.258573779296875,9.96945571289062,-0.229843359375
3.26771828168354,0.234631762695312,9.95030209960937,-0.339976635742188
3.27014776302034,0.229843359375,9.97424411621094,-0.339976635742188
3.27257722005159,0.21068974609375,9.96466730957031,-0.330399829101562
3.27500667708284,0.234631762695312,9.95509050292969,-0.339976635742188
3.27743613411409,0.225054956054687,9.94072529296875,-0.383072265625
3.28008977864534,0.1915361328125,9.9981861328125,-0.282515795898438
3.28274342317659,0.263362182617187,9.9981861328125,-0.32561142578125
3.28539706770784,0.234631762695312,9.99339772949219,-0.296881005859375
3.28805015983024,0.196324536132812,10.0029745361328,-0.296881005859375
3.29070325195263,0.201112939453125,9.93593688964844,-0.296881005859375
3.29335634407503,0.167594116210937,9.96945571289062,-0.28730419921875
3.29600955284239,0.220266552734375,9.97424411621094,-0.3447650390625
3.29866276160976,0.205901342773437,10.0077629394531,-0.282515795898438
3.30131597037713,0.177170922851562,9.99339772949219,-0.277727392578125
3.30396919173129,0.1915361328125,9.96945571289062,-0.3447650390625
3.30662241308546,0.205901342773437,9.95030209960937,-0.258573779296875
3.30927563443962,0.220266552734375,9.97903251953125,-0.205901342773437
3.31192856456115,0.148440502929687,9.95987890625,-0.17238251953125
3.31458149468267,0.186747729492187,9.96466730957031,-0.215478149414062
3.31723442480419,0.143652099609375,9.95509050292969,-0.1915361328125
3.31988965158371,0.143652099609375,9.95030209960937,-0.258573779296875
3.32254487836322,0.13407529296875,9.95030209960937,-0.244208569335937
3.32520010514273,0.105344873046875,9.9215716796875,-0.239420166015625
3.33447160506136,-0.0383072265625,9.89762966308594,-0.225054956054687
3.34374310497999,-0.05746083984375,9.883264453125,-0.253785375976562
3.35301460489863,-0.05746083984375,9.88805285644531,-0.339976635742188
3.36724414523608,0.01915361328125,9.90241806640625,-0.339976635742188
3.38147368557353,0.01915361328125,9.95030209960937,-0.368707055664062
3.39570322591098,0.047884033203125,9.94551369628906,-0.359130249023437
3.39813583626254,0.0,9.90720646972656,-0.349553442382812
3.40056844661411,0.0335188232421875,9.93114848632812,-0.40222587890625
3.40300105696568,0.0383072265625,9.95030209960937,-0.316034619140625
3.40543314550735,0.009576806640625,9.97903251953125,-0.387860668945312
3.40786523404901,0.0047884033203125,9.93114848632812,-0.397437475585937
3.41029732259068,0.028730419921875,9.95987890625,-0.407014282226562
3.41272929893617,0.009576806640625,9.9215716796875,-0.4213794921875
3.41516127528166,0.0430956298828125,9.93593688964844,-0.387860668945312
3.41759325162715,0.028730419921875,9.94551369628906,-0.387860668945312
3.42002512608462,0.086191259765625,9.91678327636719,-0.392649072265625
3.4224570005421,0.047884033203125,9.91678327636719,-0.507570751953125
3.42488887499957,0.0335188232421875,9.99339772949219,-0.36391865234375
3.42746125716102,0.009576806640625,9.94072529296875,-0.464475122070312
3.43003363932248,0.047884033203125,9.98382092285156,-0.526724365234375
3.43260602148393,0.0430956298828125,9.98860932617187,-0.387860668945312
3.43517948784679,0.0526724365234375,9.97903251953125,-0.368707055664062
3.43775295420964,0.0622492431640625,9.97903251953125,-0.383072265625
3.44032642057249,0.0335188232421875,9.99339772949219,-0.378283862304687
3.44290001019923,0.0239420166015625,9.96466730957031,-0.359130249023437
3.44547359982598,0.0383072265625,9.98382092285156,-0.4213794921875
3.44804718945272,0.0335188232421875,9.96945571289062,-0.469263525390625
3.45059647573474,0.028730419921875,10.0077629394531,-0.397437475585937
3.45314576201676,0.0526724365234375,9.96945571289062,-0.464475122070312
3.45569504829878,0.01915361328125,10.0077629394531,-0.450109912109375
3.45821132823313,0.028730419921875,9.98860932617187,-0.430956298828125
3.46072760816748,0.01915361328125,9.98382092285156,-0.502782348632812
3.46324388810184,0.0718260498046875,10.0269165527344,-0.426167895507812
3.46575111732276,0.067037646484375,10.0173397460938,-0.392649072265625
3.46825834654368,0.0526724365234375,10.0556469726563,-0.426167895507812
3.47076557576461,0.05746083984375,9.95987890625,-0.474051928710937
3.47840508232927,0.110133276367187,10.0029745361328,-0.392649072265625
3.48604458889393,0.086191259765625,9.98860932617187,-0.493205541992187
3.4936840954586,0.086191259765625,9.99339772949219,-0.426167895507812
3.49622066137657,0.105344873046875,10.0173397460938,-0.454898315429687
3.49875722729454,0.105344873046875,10.0077629394531,-0.435744702148437
3.50129379321252,0.143652099609375,10.0077629394531,-0.47884033203125
3.50379611330801,0.129286889648437,10.0029745361328,-0.426167895507812
3.50629843340349,0.105344873046875,10.0173397460938,-0.474051928710937
3.50880075349898,0.143652099609375,10.0029745361328,-0.454898315429687
3.51129880487702,0.086191259765625,10.0029745361328,-0.435744702148437
3.51379685625505,0.129286889648437,10.0173397460938,-0.40222587890625
3.51629490763309,0.129286889648437,10.0029745361328,-0.3447650390625
3.51879047848812,0.1149216796875,10.0125513427734,-0.359130249023437
3.52128604934315,0.067037646484375,10.0125513427734,-0.416591088867187
3.52378162019819,0.0909796630859375,10.0173397460938,-0.392649072265625
3.52634503339263,0.0430956298828125,10.0269165527344,-0.4213794921875
3.52890844658707,0.028730419921875,10.0173397460938,-0.4213794921875
3.53147185978151,0.09576806640625,10.0508585693359,-0.450109912109375
3.53400541365521,0.100556469726563,10.0125513427734,-0.4213794921875
3.5365389675289,0.086191259765625,10.036493359375,-0.454898315429687
3.53907252140259,0.076614453125,10.036493359375,-0.40222587890625
3.54157526489218,0.0718260498046875,10.0125513427734,-0.4213794921875
3.54407800838177,0.076614453125,9.9981861328125,-0.407014282226562
3.54658075187135,0.0622492431640625,9.99339772949219,-0.44053310546875
3.5490828267954,0.076614453125,10.0317049560547,-0.387860668945312
3.55158490171944,0.086191259765625,10.0125513427734,-0.4213794921875
3.55408697664348,0.0718260498046875,9.98860932617187,-0.397437475585937
3.55673743633316,0.067037646484375,9.9981861328125,-0.454898315429687
3.55938789602283,0.0335188232421875,9.99339772949219,-0.4213794921875
3.56203835571251,0.086191259765625,10.0221281494141,-0.416591088867187
3.5647658704152,0.0622492431640625,9.98860932617187,-0.397437475585937
3.5674933851179,0.0526724365234375,9.97424411621094,-0.407014282226562
3.57022089982059,0.047884033203125,9.95987890625,-0.4213794921875
3.57283659399377,0.0335188232421875,9.96945571289062,-0.349553442382812
3.57545228816695,0.05746083984375,9.97903251953125,-0.359130249023437
3.57806798234012,0.05746083984375,9.98382092285156,-0.330399829101562
3.58057013224247,0.0622492431640625,9.97424411621094,-0.311246215820312
3.58307228214481,0.0430956298828125,10.0125513427734,-0.3447650390625
3.58557443204716,0.0718260498046875,9.99339772949219,-0.311246215820312
3.58803858862268,0.0526724365234375,9.96945571289062,-0.282515795898438
3.59050274519821,0.0430956298828125,9.96466730957031,-0.258573779296875
3.59296690177373,0.067037646484375,9.98860932617187,-0.253785375976562
3.59539363978372,0.076614453125,9.96945571289062,-0.3447650390625
3.59782037779371,0.0430956298828125,9.93593688964844,-0.32561142578125
3.6002471158037,0.0,9.95987890625,-0.349553442382812
3.60267049867047,0.0047884033203125,9.93114848632812,-0.32561142578125
3.60509388153723,0.028730419921875,9.97424411621094,-0.354341845703125
3.60751726440399,0.0,9.97424411621094,-0.373495458984375
3.61461461045434,-0.0239420166015625,9.98382092285156,-0.3064578125
3.62171195650469,-0.0239420166015625,9.98382092285156,-0.277727392578125
3.62880930255503,0.009576806640625,9.97424411621094,-0.2681505859375
3.6360014105086,0.01915361328125,9.9981861328125,-0.330399829101562
3.64319351846216,0.0,10.0125513427734,-0.320823022460937
3.65038562641573,0.047884033203125,9.9981861328125,-0.2681505859375
3.65280585003769,0.0526724365234375,10.0077629394531,-0.282515795898438
3.65522607365965,0.0909796630859375,10.0317049560547,-0.205901342773437
3.65764629728161,0.0526724365234375,10.0077629394531,-0.32561142578125
3.66006722713186,0.05746083984375,9.97903251953125,-0.320823022460937
3.66248815698212,0.0526724365234375,10.0317049560547,-0.28730419921875
3.66490908683237,0.047884033203125,10.0125513427734,-0.24899697265625
3.66733081249969,0.076614453125,10.0412817626953,-0.272938989257812
3.66975253816701,0.0814028564453125,10.0029745361328,-0.239420166015625
3.67217426383433,0.067037646484375,9.98860932617187,-0.205901342773437
3.67459677563446,0.067037646484375,10.0077629394531,-0.253785375976562
3.67701928743459,0.110133276367187,9.97903251953125,-0.205901342773437
3.67944179923472,0.0526724365234375,9.97903251953125,-0.181959326171875
3.68193405683021,0.0622492431640625,9.97903251953125,-0.17238251953125
3.6844263144257,0.0622492431640625,9.97424411621094,-0.229843359375
3.68691857202119,0.0909796630859375,9.99339772949219,-0.24899697265625
3.68941029478596,0.0814028564453125,10.0029745361328,-0.181959326171875
3.69190201755072,0.0718260498046875,10.0029745361328,-0.196324536132812
3.69439374031548,0.09576806640625,10.0077629394531,-0.17238251953125
3.69688309079292,0.09576806640625,9.9981861328125,-0.119710083007812
3.69937244127036,0.105344873046875,9.97903251953125,-0.100556469726563
3.7018617917478,0.1149216796875,9.98860932617187,-0.215478149414062
3.70432074633764,0.148440502929687,9.9981861328125,-0.181959326171875
3.70677970092748,0.110133276367187,10.0221281494141,-0.167594116210937
3.70923865551732,0.124498486328125,9.98382092285156,-0.158017309570312
3.71166862524387,0.177170922851562,10.0077629394531,-0.167594116210937
3.71409859497043,0.158017309570312,10.0269165527344,-0.225054956054687
3.71652856469698,0.143652099609375,10.0317049560547,-0.234631762695312
3.71933834041312,0.138863696289063,9.98860932617187,-0.205901342773437
3.72214811612927,0.177170922851562,10.0173397460938,-0.225054956054687
3.72495789184541,0.148440502929687,10.0317049560547,-0.205901342773437
3.72776846226642,0.129286889648437,9.99339772949219,-0.225054956054687
3.73057903268743,0.13407529296875,10.0173397460938,-0.244208569335937
3.73338960310844,0.138863696289063,9.97424411621094,-0.177170922851562
3.73620020315185,0.1149216796875,10.0221281494141,-0.162805712890625
3.73901080319525,0.1149216796875,10.0077629394531,-0.138863696289063
3.74182140323865,0.138863696289063,10.036493359375,-0.0909796630859375
3.74463189954941,0.0814028564453125,10.0412817626953,-0.086191259765625
3.74744239586017,0.110133276367187,10.0269165527344,-0.0622492431640625
3.75025289217093,0.100556469726563,10.0125513427734,-0.0814028564453125
3.75299383325166,0.138863696289063,10.0412817626953,-0.100556469726563
3.75573477433239,0.0814028564453125,10.0221281494141,-0.110133276367187
3.75847571541312,0.05746083984375,10.0125513427734,-0.0526724365234375
3.76121590833847,0.100556469726563,10.0221281494141,-0.105344873046875
3.76395610126382,0.09576806640625,10.0508585693359,-0.0909796630859375
3.76669629418917,0.0622492431640625,10.0412817626953,-0.0814028564453125
3.76943555677598,0.0383072265625,10.0604353759766,-0.047884033203125
3.77217481936279,0.086191259765625,10.0412817626953,-0.0622492431640625
3.7749140819496,0.0814028564453125,10.0508585693359,-0.01915361328125
3.79971171520389,0.162805712890625,10.1609918457031,-0.201112939453125
3.82450934845819,0.119710083007812,10.1992990722656,-0.196324536132812
3.84930698171249,0.17238251953125,10.1753570556641,-0.15322890625
3.85164780419512,0.148440502929687,10.189722265625,-0.220266552734375
3.85398862667775,0.1149216796875,10.1562034423828,-0.215478149414062
3.85632944916039,0.0814028564453125,10.189722265625,-0.1915361328125
3.85867177830846,0.138863696289063,10.1992990722656,-0.201112939453125
3.86101410745652,0.129286889648437,10.2136642822266,-0.158017309570312
3.86335643660459,0.09576806640625,10.1849338623047,-0.13407529296875
3.86569994765679,0.0909796630859375,10.1945106689453,-0.110133276367187
3.86804345870899,0.162805712890625,10.1657802490234,-0.15322890625
3.8703869697612,0.0909796630859375,10.1945106689453,-0.148440502929687
3.87273160282171,0.105344873046875,10.1657802490234,-0.028730419921875
3.87507623588222,0.119710083007812,10.2184526855469,-0.0430956298828125
3.87742086894273,0.129286889648437,10.1801454589844,-0.047884033203125
3.87983243227978,0.105344873046875,10.1609918457031,0.047884033203125
3.88224399561684,0.1149216796875,10.2040874755859,-0.0239420166015625
3.88465555895389,0.148440502929687,10.2136642822266,0.0383072265625
3.88707282611348,0.100556469726563,10.2280294921875,0.086191259765625
3.88949009327308,0.119710083007812,10.26633671875,0.0718260498046875
3.89190736043267,0.105344873046875,10.2040874755859,0.0622492431640625
3.89432827536322,0.100556469726563,10.2280294921875,0.1149216796875
3.89674919029377,0.1149216796875,10.2950671386719,0.167594116210937
3.89917010522431,0.0909796630859375,10.2471831054687,0.1915361328125
3.9015924113224,0.100556469726563,10.2567599121094,0.21068974609375
3.90401471742049,0.086191259765625,10.2519715087891,0.17238251953125
3.90643702351858,0.09576806640625,10.2807019287109,0.239420166015625
3.90885947805416,0.086191259765625,10.2807019287109,0.205901342773437
3.91128193258975,0.1149216796875,10.3142207519531,0.277727392578125
3.91370438712534,0.09576806640625,10.3285859619141,0.311246215820312
3.91618871492481,0.0814028564453125,10.2519715087891,0.225054956054687
3.91867304272428,0.076614453125,10.2854903320312,0.205901342773437
3.92115737052376,0.086191259765625,10.2854903320312,0.36391865234375
3.92363224739551,0.105344873046875,10.3285859619141,0.349553442382812
3.92610712426726,0.0909796630859375,10.2280294921875,0.311246215820312
3.92858200113901,0.0622492431640625,10.26633671875,0.36391865234375
3.9310124645993,0.067037646484375,10.2711251220703,0.32561142578125
3.93344292805959,0.028730419921875,10.2088758789062,0.359130249023437
3.93587339151988,0.047884033203125,10.2567599121094,0.44053310546875
3.9382589977753,0.0,10.2280294921875,0.426167895507812
3.94064460403073,0.0430956298828125,10.2088758789062,0.454898315429687
3.94303021028616,0.0383072265625,10.2184526855469,0.488417138671875
3.94545221918373,0.0239420166015625,10.189722265625,0.411802685546875
3.94787422808131,0.01915361328125,10.1562034423828,0.541089575195312
3.95029623697888,0.0047884033203125,10.1466266357422,0.536301171875
3.95287538389729,0.0143652099609375,10.1705686523437,0.51714755859375
3.95545453081569,-0.0143652099609375,10.1753570556641,0.507570751953125
3.9580336777341,-0.009576806640625,10.1226846191406,0.536301171875
3.96053999848062,-0.0239420166015625,10.0939541992188,0.550666381835937
3.96304631922715,-0.0047884033203125,10.1274730224609,0.565031591796875
3.96555263997367,-0.05746083984375,10.1035310058594,0.55545478515625
3.96820456423583,-0.0526724365234375,10.0843773925781,0.603338818359375
3.97085648849798,-0.105344873046875,10.1226846191406,0.684741674804688
3.97350841276013,-0.0526724365234375,10.1131078125,0.67037646484375
3.97616215538166,-0.0430956298828125,10.1418382324219,0.689530078125
3.97881589800318,-0.0718260498046875,10.1705686523437,0.732625708007812
3.9814696406247,-0.0526724365234375,10.1178962158203,0.689530078125
3.98412301519067,-0.0383072265625,10.1322614257812,0.7278373046875
3.98677638975663,-0.05746083984375,10.1083194091797,0.842758984375
3.9894297643226,-0.0335188232421875,10.0891657958984,1.01514150390625
3.99208309548579,-0.028730419921875,10.0077629394531,1.01035310058594
3.99473642664899,-0.0430956298828125,9.94072529296875,1.01992990722656
3.99738975781218,-0.0239420166015625,9.92636008300781,0.991199487304687
4.00004443059593,-0.0526724365234375,9.86411083984375,0.914585034179687
4.00269910337967,-0.047884033203125,9.84016882324219,0.732625708007812
4.00535377616342,-0.0430956298828125,9.87368764648437,0.679953271484375
4.01758307847733,0.028730419921875,10.2615483154297,0.928950244140625
4.02981238079125,0.028730419921875,10.1945106689453,0.952892260742187
4.04204168310516,0.047884033203125,10.2184526855469,0.97683427734375
4.04440032676836,0.0335188232421875,10.1657802490234,1.05823713378906
4.04675897043156,0.05746083984375,10.1370498291016,0.995987890625
4.04911761409476,0.0430956298828125,10.1514150390625,0.93852705078125
4.06128485096541,0.205901342773437,10.0652237792969,1.01992990722656
4.07345208783607,0.177170922851562,10.1131078125,1.06302553710937
4.08561932470672,0.177170922851562,10.0891657958984,1.12048637695313
4.08809260505249,0.181959326171875,10.1609918457031,1.28329208984375
4.09056588539827,0.181959326171875,10.1466266357422,1.30723410644531
4.09303916574405,0.167594116210937,10.1418382324219,1.33596452636719
4.09550581476025,0.205901342773437,10.0748005859375,1.31202250976562
4.09797246377645,0.24899697265625,10.0891657958984,1.20667763671875
4.10043911279266,0.263362182617187,9.98382092285156,1.149216796875
4.10289918082651,0.253785375976562,9.883264453125,1.19231242675781
4.10535924886036,0.234631762695312,9.80665,1.22583125
4.10781931689421,0.28730419921875,9.730035546875,1.22583125
4.11027282727471,0.220266552734375,9.63426748046875,1.34554133300781
4.11272633765521,0.253785375976562,9.59596025390625,1.40779057617187
4.11517984803571,0.234631762695312,9.5001921875,1.59453830566406
4.11762642185661,0.272938989257812,9.44273134765625,1.65678754882812
4.1200729956775,0.253785375976562,9.36132849121094,1.78607443847656
4.1225195694984,0.177170922851562,9.3086560546875,1.98239897460937
4.12495924267548,0.17238251953125,9.22246479492187,2.07337863769531
4.12739891585257,0.148440502929687,9.16979235839844,2.17393510742187
4.12983858902965,0.138863696289063,9.1554271484375,2.375048046875
4.13630727460365,-0.0622492431640625,8.68137521972656,2.06380183105469
4.14277596017765,-0.0526724365234375,8.56645354003906,2.08774384765625
4.14924464575164,-0.0143652099609375,8.51856950683594,2.17393510742187
4.15197241050858,0.0047884033203125,8.48983908691406,2.14041628417969
4.15470017526552,-0.05746083984375,8.43716665039062,2.12605107421875
4.15742794002247,0.028730419921875,8.31745656738281,2.06380183105469
4.16015707044782,0.009576806640625,8.22647690429687,2.03985981445312
4.16288620087317,-0.01915361328125,8.18338127441406,2.01591779785156
4.16561533129852,0.028730419921875,8.03972917480469,2.03507141113281
4.16831056485972,0.0383072265625,7.95353791503906,1.96803376464844
4.17100579842091,0.0814028564453125,7.81946262207031,1.91057292480469
4.17370103198211,0.086191259765625,7.67102211914062,1.76692082519531
4.1763622567,0.0622492431640625,7.56088884277344,1.66636435546875
4.17902348141788,0.047884033203125,7.431601953125,1.62805712890625
4.18168470613576,0.01915361328125,7.3932947265625,1.47961662597656
4.1843456091848,0.09576806640625,7.25443103027344,1.40779057617187
4.18700651223385,0.119710083007812,7.18739338378906,1.47003981933594
4.18966741528289,0.143652099609375,7.08204851074219,1.39342536621094
4.19745301142004,0.316034619140625,6.89051237792969,0.93852705078125
4.20523860755719,0.272938989257812,6.89530078125,0.991199487304687
4.21302420369434,0.296881005859375,6.87135876464844,1.0342951171875
4.22075455563662,0.220266552734375,6.67024582519531,1.74297880859375
4.22848490757889,0.205901342773437,6.68939943847656,1.79086284179687
4.23621525952117,0.225054956054687,6.73728347167969,1.77649763183594
4.24393570656977,-0.186747729492187,7.56567724609375,1.11569797363281
4.25165615361837,-0.162805712890625,7.584830859375,1.19710083007812
4.25937660066698,-0.1915361328125,7.63271489257812,1.17794721679687
4.26187562692566,-0.201112939453125,7.67102211914062,1.29286889648437
4.26437465318434,-0.177170922851562,7.63271489257812,1.37906015625
4.26687367944302,-0.215478149414062,7.64229169921875,1.50355864257812
4.26944655509406,-0.201112939453125,7.63750329589844,1.53707746582031
4.27201943074511,-0.229843359375,7.65186850585937,1.60411511230469
4.27459230639615,-0.201112939453125,7.69496413574219,1.62326872558594
4.27716654956022,-0.239420166015625,7.71411774902344,1.6472107421875
4.27974079272429,-0.253785375976562,7.64708010253906,1.58974990234375
4.28231503588835,-0.311246215820312,7.60877287597656,1.60411511230469
4.2848547359209,-0.3447650390625,7.58961926269531,1.65199914550781
4.28739443595346,-0.3447650390625,7.61834968261719,1.56101948242187
4.28993413598601,-0.411802685546875,7.584830859375,1.5705962890625
4.29243948929366,-0.416591088867187,7.58961926269531,1.608903515625
4.29494484260131,-0.464475122070312,7.62792648925781,1.65678754882812
4.29745019590895,-0.474051928710937,7.57525405273437,1.67594116210937
4.29995532420937,-0.536301171875,7.53694682617187,1.68551796875
4.30246045250978,-0.454898315429687,7.56567724609375,1.76692082519531
4.3049655808102,-0.44053310546875,7.53215842285156,1.79565124511719
4.31748429882235,-0.201112939453125,7.48427438964844,2.1835119140625
4.3300030168345,-0.220266552734375,7.60398447265625,2.32716401367187
4.34252173484664,-0.234631762695312,7.70454094238281,2.44687409667969
4.34503074968497,-0.225054956054687,7.83382783203125,2.45645090332031
4.3475397645233,-0.258573779296875,7.967903125,2.528276953125
4.35004877936162,-0.253785375976562,8.01099875488281,2.52348854980469
4.35656202483689,-0.560243188476563,8.78672009277344,2.34152922363281
4.36307527031215,-0.59376201171875,8.76277807617187,2.42293208007812
4.36958851578741,-0.584185205078125,8.77714328613281,2.51391174316406
4.3722350531138,-0.541089575195312,8.70531723632812,2.60489140625
4.37488159044019,-0.51714755859375,8.67658681640625,2.59052619628906
4.37752812776658,-0.47884033203125,8.64306799316406,2.6431986328125
4.38017477077873,-0.4213794921875,8.62391437988281,2.69108266601562
4.38282141379087,-0.464475122070312,8.58560715332031,2.67192905273437
4.38546805680302,-0.40222587890625,8.5425115234375,2.75333190917969
4.3881147972544,-0.339976635742188,8.45632026367188,2.73896669921875
4.39076153770579,-0.354341845703125,8.48026228027344,2.69587106933594
4.39340827815717,-0.320823022460937,8.4658970703125,2.76769711914062
4.39591502403391,-0.335188232421875,8.46110866699219,2.79163913574219
4.39842176991065,-0.3064578125,8.46110866699219,2.94007963867187
4.40092851578738,-0.239420166015625,8.50899270019531,2.96402165527344
4.40343422086551,-0.24899697265625,8.48983908691406,2.97838686523437
4.40593992594364,-0.17238251953125,8.48505068359375,3.03105930175781
4.40844563102176,-0.124498486328125,8.56645354003906,3.00711728515625
4.41095134293582,-0.05746083984375,8.54729992675781,3.08852014160156
4.41345705484988,-0.0622492431640625,8.6191259765625,3.19386501464844
4.41596276676394,-0.028730419921875,8.657433203125,3.31357509765625
4.4223394256181,-0.086191259765625,8.95910261230469,3.74453139648437
4.42871608447226,-0.0909796630859375,9.0021982421875,3.83551105957031
4.43509274332642,-0.047884033203125,8.98783303222656,3.83551105957031
4.43766003151001,-0.0622492431640625,9.05965908203125,3.80678063964844
4.4402273196936,-0.047884033203125,9.02614025878906,3.84987626953125
4.44279460787719,-0.009576806640625,9.02135185546875,3.78762702636719
4.44533778110853,-0.0239420166015625,8.97825622558594,3.67749375
4.44788095433987,0.01915361328125,9.0021982421875,3.66312854003906
4.4504241275712,-0.009576806640625,8.95431420898437,3.64876333007812
4.45294187866712,0.009576806640625,8.95431420898437,3.57693728027344
4.45545962976304,-0.0143652099609375,8.97346782226562,3.63439812011719
4.45797738085896,-0.01915361328125,8.94473740234375,3.72537778320312
4.46055396614542,-0.01915361328125,8.93037219238281,3.70143576660156
4.46313055143188,-0.028730419921875,8.92079538574219,3.7924154296875
4.46570713671834,-0.0383072265625,8.94952580566406,3.76368500976562
4.46828625564195,-0.0718260498046875,8.85375773925781,3.64876333007812
4.47086537456556,-0.0814028564453125,8.86812294921875,3.6391865234375
4.47344449348917,-0.13407529296875,8.88248815917969,3.50989963378906
4.47602882535765,-0.17238251953125,8.80108530273437,3.47159240722656
4.47861315722614,-0.21068974609375,8.82981572265625,3.31357509765625
4.48119748909463,-0.24899697265625,8.86333454589844,3.22259543457031
4.48378360715018,-0.349553442382812,8.80587370605469,3.24653745117187
4.48636972520574,-0.47884033203125,8.79629689941406,3.33751711425781
4.48895584326129,-0.5746083984375,8.81545051269531,3.39497795410156
4.49150769048352,-0.641646044921875,8.81545051269531,3.54820686035156
4.49405953770574,-0.723048901367187,8.80108530273437,3.67270534667969
4.49661138492796,-0.809240161132812,8.80108530273437,3.66791694335937
4.49918869786199,-0.86191259765625,8.75798967285156,3.70143576660156
4.50176601079601,-0.952892260742187,8.81545051269531,3.84029946289062
4.50434332373004,-0.972045874023437,8.83460412597656,3.91212551269531
4.50699643516668,-1.07739074707031,8.8872765625,3.90254870605469
4.50964954660331,-1.12048637695313,8.92079538574219,4.00310517578125
4.51230265803994,-1.16837041015625,8.94473740234375,4.02704719238281
4.51495626236937,-1.24019645996094,9.02614025878906,3.98873996582031
4.51760986669879,-1.31681091308594,9.10275471191406,4.05098920898438
4.52026347102822,-1.35990654296875,9.18894597167969,3.96479794921875
4.52291769357596,-1.40779057617187,9.28471403808594,3.96479794921875
4.52557191612371,-1.41257897949219,9.34217487792969,3.92170231933594
4.52822613867146,-1.44130939941406,9.44273134765625,3.89776030273437
4.53076833957206,-1.40300217285156,9.52413420410156,3.92170231933594
4.53331054047266,-1.42694418945312,9.59596025390625,3.91691391601562
4.53585274137326,-1.35511813964844,9.63905588378906,3.97437475585937
4.53835613411414,-1.32159931640625,9.70609353027344,4.07014282226563
4.54085952685503,-1.20188923339844,9.72524714355469,4.12760366210938
4.54336291959591,-1.15400520019531,9.76355437011719,4.25689055175781
4.54586594308766,-1.05344873046875,9.70130512695312,4.3287166015625
4.54836896657942,-0.9576806640625,9.72045874023437,4.27604416503906
4.55087199007117,-0.928950244140625,9.73482395019531,4.28562097167969
4.5533753272565,-0.837970581054687,9.74440075683594,4.36223542480469
4.55587866444182,-0.694318481445312,9.75397756347656,4.41490786132812
4.55838200162715,-0.612915625,9.74440075683594,4.47715710449219
4.56463651627557,0.277727392578125,9.5384994140625,4.42448466796875
4.57089103092399,0.36391865234375,9.61990227050781,4.57292517089844
4.57714554557241,0.301669409179687,9.67257470703125,4.5968671875
4.5796467985021,0.339976635742188,9.75397756347656,4.64953962402344
4.58214805143178,0.36391865234375,9.75876596679687,4.57771357421875
4.58464930436146,0.40222587890625,9.71088193359375,4.42927307128906
4.59128093358238,-0.047884033203125,9.66299790039063,4.04620080566406
4.59791256280329,-0.124498486328125,9.64863269042969,4.07493122558594
4.60454419202421,-0.15322890625,9.62947907714844,4.00789357910156
4.60723562925294,-0.24899697265625,9.6917283203125,4.18985290527344
4.60992706648166,-0.301669409179687,9.6917283203125,4.27125576171875
4.61261850371039,-0.40222587890625,9.67257470703125,4.367023828125
4.61528544002766,-0.426167895507812,9.72524714355469,4.39096584472656
4.61795237634493,-0.603338818359375,9.70130512695312,4.49152231445312
4.6206193126622,-0.6512228515625,9.73482395019531,4.4819455078125
4.62328080631454,-0.761356127929687,9.73482395019531,4.47236870117187
4.62594229996688,-0.943315454101562,9.72524714355469,4.61602080078125
4.62860379361922,-0.97683427734375,9.72045874023437,4.69742365722656
4.63126712830889,-1.15400520019531,9.70130512695312,4.66869323730469
4.63393046299856,-1.31202250976562,9.77791958007812,4.53461794433594
4.63659379768823,-1.42215578613281,9.83059201660156,4.2521021484375
4.63925949804631,-1.61848032226562,9.88805285644531,3.9839515625
4.64192519840438,-1.80522805175781,9.87847604980469,3.7158009765625
4.64459089876246,-1.90578452148437,9.96466730957031,3.87381828613281
4.64726052658364,-2.04464821777344,9.94072529296875,3.83551105957031
4.64993015440481,-2.10210905761719,9.87847604980469,4.19464130859375
4.65259978222599,-2.15956989746094,9.83059201660156,4.39096584472656
4.66469007093582,0.584185205078125,8.98304462890625,5.60243188476562
4.67678035964566,0.775721337890625,8.93037219238281,5.62637390136719
4.68887064835549,0.895431420898437,8.95910261230469,5.56891306152344
4.69159939759595,1.01514150390625,8.86333454589844,5.48751020507812
4.6943281468364,1.16837041015625,8.78193168945312,5.53539423828125
4.69705689607686,1.21146604003906,8.72447084960938,5.45877978515625
4.69940516886332,1.2641384765625,8.810662109375,5.74129558105469
4.70175344164979,1.21625444335937,8.72447084960938,5.96156213378906
4.70410171443625,1.24019645996094,8.80108530273437,6.14352145996094
4.70644918503087,1.20667763671875,8.74362446289062,6.19619389648437
4.70879665562549,1.11569797363281,8.76756647949219,6.29196196289062
4.71114412622011,1.05344873046875,8.73883605957031,6.20098229980469
4.71349147572097,0.924161840820312,8.76756647949219,6.205770703125
4.71583882522184,0.866701000976562,8.80587370605469,6.2440779296875
4.7181861747227,0.699106884765625,8.67658681640625,6.10521423339844
4.72053349004389,0.656011254882812,8.70052883300781,6.11479104003906
4.72288080536507,0.416591088867187,8.64785639648438,5.88973608398438
4.72522812068625,0.258573779296875,8.68137521972656,5.93283171386719
4.72757541549962,0.138863696289063,8.70531723632812,5.92325490722656
4.72992271031299,-0.0335188232421875,8.75798967285156,5.87537087402344
4.73227000512635,-0.1915361328125,8.79150849609375,5.87058247070312
4.73838639431934,-1.38384855957031,8.86812294921875,6.0142345703125
4.74450278351233,-1.43652099609375,8.85375773925781,6.17225187988281
4.75061917270532,-1.46525141601562,8.86333454589844,6.27759675292969
4.75310589620392,-1.45088620605469,8.810662109375,6.31590397949219
4.75559261970252,-1.4173673828125,8.82023891601562,6.25844313964844
4.75807934320112,-1.42694418945312,8.76277807617187,6.2440779296875
4.76056422210451,-1.3407529296875,8.69095202636719,6.04775339355469
4.7630491010079,-1.33596452636719,8.66701000976562,5.87058247070312
4.76553397991129,-1.27371528320312,8.66222160644531,5.77481440429687
4.76801412185836,-1.21625444335937,8.66701000976562,5.8226984375
4.77049426380543,-1.15400520019531,8.6957404296875,5.94240852050781
4.7729744057525,-1.08696755371094,8.6957404296875,6.07648381347656
4.77545000518769,-1.00556469726562,8.73404765625,6.0908490234375
4.77792560462287,-0.895431420898437,8.72447084960938,6.29675036621094
4.78040120405806,-0.818816967773437,8.80587370605469,6.36378801269531
4.78287121660203,-0.694318481445312,8.88248815917969,6.55532414550781
4.785341229146,-0.588973608398437,8.90643017578125,6.68461103515625
4.78781124168997,-0.488417138671875,8.87769975585937,6.64630380859375
4.79027544967779,-0.258573779296875,8.95431420898437,6.72291826171875
4.79273965766562,-0.124498486328125,9.01656345214844,6.59841977539062
4.79520386565344,-0.0239420166015625,9.05008227539062,6.49307490234375
4.80143575556886,1.25456166992187,8.76756647949219,7.00064565429687
4.80766764548427,1.23540805664062,8.58560715332031,7.03416447753906
4.81389953539968,1.17794721679687,8.6957404296875,7.10599052734375
4.81640154494829,1.13485158691406,8.61433757324219,7.18739338378906
4.8189035544969,1.04387192382812,8.71010563964844,7.28316145019531
4.82140556404551,1.03908352050781,8.62870278320312,7.43639035644531
4.82390474253943,0.981622680664062,8.73404765625,7.36456430664062
4.82640392103336,0.871489404296875,8.68137521972656,7.25921943359375
4.82890309952728,0.718260498046875,8.81545051269531,7.18739338378906
4.83140194197519,0.536301171875,8.90164177246094,7.05810649414062
4.8339007844231,0.32561142578125,8.86812294921875,7.03416447753906
4.83639962687101,0.138863696289063,8.91121857910156,7.04374128417969
4.8388983813198,-0.0909796630859375,8.95431420898437,7.09162531738281
4.84139713576858,-0.359130249023437,9.02135185546875,7.02458767089844
4.84389589021737,-0.5746083984375,9.09796630859375,7.26879624023437
4.84662021139792,-0.847547387695312,9.14585034179687,7.44117875976562
4.84934453257847,-1.11569797363281,9.193734375,7.64708010253906
4.85206885375902,-1.17794721679687,9.19852277832031,7.74284816894531
4.85473232608975,-1.42215578613281,9.22246479492187,7.75721337890625
4.85739579842048,-1.50834704589844,9.13148513183594,7.76679018554687
4.86005927075121,-1.61848032226562,9.11233151855469,7.79552060546875
4.86271954950555,-1.70467158203125,8.98304462890625,7.9295958984375
4.86537982825989,-1.57538469238281,9.21288798828125,8.05888278808594
4.86804010701422,-1.62326872558594,9.20809958496094,7.86734665527344
4.87069715454027,-1.5705962890625,9.28950244140625,7.74763657226562
4.87335420206631,-1.36469494628906,9.37090529785156,7.42681354980469
4.87601124959235,-1.21146604003906,9.24161840820312,7.21133540039062
4.87873197941006,-1.10133276367187,9.576806640625,7.36935270996094
4.88145270922776,-0.986411083984375,9.52413420410156,7.4699091796875
4.88417343904547,-0.842758984375,9.34217487792969,7.72848295898437
4.88689573505241,-0.675164868164063,9.3086560546875,7.94874951171875
4.88961803105936,-0.316034619140625,9.37569370117187,8.01578715820312
4.89234032706631,-0.086191259765625,9.3852705078125,8.24563051757812
4.89500357207499,0.13407529296875,9.66299790039063,8.4658970703125
4.89766681708368,0.296881005859375,9.61032546386719,8.48026228027344
4.90033006209237,0.617704028320312,9.69651672363281,8.5425115234375
4.91376514119394,-1.07739074707031,9.730035546875,9.20331118164062
4.92720022029551,-1.08217915039062,9.44273134765625,8.88248815917969
4.94063529939709,-0.871489404296875,9.24640681152344,8.55687673339844
4.94320922810802,-0.70868369140625,8.9255837890625,8.72447084960938
4.94578315681896,-0.407014282226562,8.86333454589844,8.99262143554687
4.94835708552989,-0.162805712890625,8.79150849609375,9.4618849609375
4.95078345510455,0.15322890625,8.76756647949219,9.85932243652344
4.9532098246792,0.469263525390625,8.82023891601562,9.99339772949219
4.95563619425386,0.660799658203125,8.86333454589844,9.94551369628906
4.95806059768267,0.905008227539062,8.86812294921875,9.9215716796875
4.96048500111149,0.991199487304687,9.10275471191406,9.67736311035156
4.96290940454031,1.08217915039062,9.39963571777344,9.35654008789063
4.96654490030854,1.71903679199219,10.7882726806641,9.19852277832031
4.97018039607677,1.94888015136719,11.0899420898437,9.24161840820312
4.973815891845,2.13562788085937,11.3580926757812,9.4618849609375
4.97623963050603,2.35110603027344,11.4825911621094,9.71567033691406
4.97866336916705,2.56179577636719,11.6070896484375,10.1274730224609
4.98108710782808,2.59531459960937,11.7794721679688,10.6111017578125
4.98351094076356,2.73896669921875,11.8704518310547,10.8457335205078
4.98593477369903,2.7964275390625,11.8943938476563,10.87925234375
4.98835860663451,2.84909997558594,11.9183358642578,10.7786958740234
4.99943062184357,-0.17238251953125,12.9095353515625,11.2048637695312
5.01050263705264,-0.124498486328125,12.9095353515625,11.7076461181641
5.02157465226171,-0.028730419921875,12.9861498046875,12.2870429199219
5.02405769468792,-0.009576806640625,13.0962830810547,12.641384765625
5.02654073711414,0.124498486328125,13.2447235839844,12.7275760253906
5.02902377954035,0.119710083007812,13.4314713134766,12.5120978759766
5.0314855624903,0.244208569335937,13.6230074462891,12.2152168701172
5.03394734544024,0.292092602539062,13.8097551757813,11.8896054443359
5.03640912839019,0.407014282226562,13.9246768554687,11.49216796875
5.03884206573346,0.454898315429687,14.020444921875,11.2240173828125
5.04127500307673,0.59376201171875,14.0874825683594,11.1809217529297
5.04370794042,0.775721337890625,14.1066361816406,11.3245738525391
5.04611193829808,0.8810662109375,14.1401550048828,11.5879360351562
5.04851593617617,0.967257470703125,14.1688854248047,12.1290256103516
5.05091993405425,1.06781394042969,14.1593086181641,12.4546370361328
5.05344458317896,1.149216796875,14.1449434082031,12.6988456054687
5.05596923230367,1.12527478027344,14.1688854248047,12.7658832519531
5.05849388142838,1.15879360351562,14.1832506347656,12.7515180419922
5.06100061797352,1.1109095703125,14.3412679443359,12.6940572021484
5.06350735451866,1.04387192382812,14.5088620605469,12.4259066162109
5.06601409106381,0.962469067382812,14.7003981933594,12.2247936767578
5.06852311656293,0.809240161132812,14.8536270996094,11.8129909912109
5.07103214206206,0.684741674804688,14.9829139892578,11.7267997314453
5.07354116756119,0.545877978515625,15.0978356689453,11.5017447753906
5.07605149232247,0.354341845703125,15.1840269287109,11.4011883056641
5.07856181708375,0.292092602539062,15.2893718017578,11.49216796875
5.08107214184503,0.196324536132812,15.2941602050781,11.6070896484375
5.08358218698392,0.201112939453125,15.3516210449219,11.6932809082031
5.08609223212282,0.239420166015625,15.3133138183594,11.6932809082031
5.08860227726171,0.28730419921875,15.2750065917969,11.7698953613281
5.09111194837717,0.320823022460937,15.2702181884766,11.8321446044922
5.09362161949262,0.368707055664062,15.1600849121094,11.7411649414062
5.09613129060807,0.311246215820312,15.1122008789062,11.7651069580078
5.09864093199261,0.258573779296875,15.0786820556641,11.7267997314453
5.10115057337716,0.234631762695312,15.0786820556641,11.6070896484375
5.1036602147617,0.177170922851562,15.0355864257812,11.4011883056641
5.10986565095962,-0.799663354492188,13.3500684570312,11.0899420898437
5.11607108715753,-0.847547387695312,13.3117612304687,11.1186725097656
5.12227652335545,-0.895431420898437,13.2878192138672,11.2096521728516
5.12469846389364,-0.943315454101562,13.3117612304687,11.0755768798828
5.12712040443184,-0.962469067382812,13.3452800537109,10.8361567138672
5.12954234497004,-0.986411083984375,13.4362597167969,10.4004120117187
5.13188944891969,-1.0342951171875,13.5368161865234,10.0939541992188
5.13423655286934,-1.04866032714844,13.6517378662109,9.97424411621094
5.13658365681899,-0.948103857421875,13.8480624023437,10.0317049560547
5.13892929842055,-0.914585034179687,14.0108681152344,10.2998555419922
5.14127494002211,-0.962469067382812,14.097059375,10.4435076416016
5.14362058162367,-0.991199487304687,14.25028828125,10.6015249511719
5.14596608748305,-0.972045874023437,14.3221143310547,10.5201220947266
5.14831159334243,-0.97683427734375,14.4370360107422,10.4435076416016
5.15065709920182,-0.90021982421875,14.5758997070312,10.2567599121094
5.15300269870268,-0.885854614257812,14.7243402099609,10.189722265625
5.15534829820354,-0.852335791015625,14.8679923095703,10.0748005859375
5.1576938977044,-0.828393774414062,15.0643168457031,9.85932243652344
5.16003947973565,-0.833182177734375,15.2175457519531,9.58638344726563
5.1623850617669,-0.8044517578125,15.3659862548828,9.51934580078125
5.16473064379814,-0.737414111328125,15.4809079345703,9.41878933105469
5.16707725850083,-0.78529814453125,15.6772324707031,9.22246479492187
5.16942387320353,-0.809240161132812,15.7730005371094,9.08838950195312
5.17177048790622,-0.948103857421875,15.9501714599609,8.90643017578125
5.17691467555812,-1.07260234375,17.2957127929688,7.94396110839844
5.18205886321003,-1.0342951171875,17.4776721191406,7.74763657226562
5.18720305086193,-0.890643017578125,17.6261126220703,7.59919606933594
5.18985298539969,-1.00077629394531,17.8224371582031,7.36935270996094
5.19250291993745,-1.20188923339844,18.0474921142578,7.21612380371094
5.19515285447522,-1.03908352050781,18.1336833740234,7.28316145019531
5.19780468512843,-0.7278373046875,18.2821238769531,7.22570061035156
5.20045651578165,-0.493205541992187,18.6412541259766,7.15387456054687
5.20310834643487,-0.488417138671875,19.0339031982422,6.818686328125
5.20576135012411,-0.383072265625,19.2876885742187,6.5505357421875
5.20841435381335,-0.119710083007812,19.5558391601562,6.41646044921875
5.21106735750259,0.05746083984375,19.9484882324219,6.20098229980469
5.21365709548002,-0.05746083984375,20.4369053710937,5.99029255371094
5.21624683345745,-0.05746083984375,21.0833398193359,5.76044919433594
5.21883657143488,-0.0526724365234375,21.8686379638672,5.51145222167969
5.22133907466839,0.0718260498046875,22.4528231689453,5.37737692871094
5.22384157790189,0.215478149414062,23.1231996337891,5.02303508300781
5.2263440811354,0.1915361328125,23.5780979492187,4.53461794433594
5.2287811810703,0.196324536132812,24.3825497070312,4.18027609863281
5.23121828100519,0.110133276367187,25.1630594482422,3.754108203125
5.23365538094009,0.383072265625,25.7328794433594,3.38061274414062
5.25165490230691,0.928950244140625,8.48026228027344,5.37258852539062
5.26965442367373,0.588973608398437,7.34062229003906,5.76523759765625
5.28765394504055,0.335188232421875,6.12915625,6.56490095214844
5.29006885422023,0.335188232421875,4.85544096679687,7.48906279296875
5.29248376339992,0.407014282226562,3.53384165039062,8.41322463378906
5.29489867257961,0.7278373046875,2.55221896972656,9.48582697753906
5.29731438280578,1.15400520019531,1.8770541015625,10.6254669677734
5.29973009303196,1.81001645507812,1.44609780273437,11.7363765380859
5.30214580325814,2.55221896972656,1.30723410644531,13.0627642578125
5.30456225116275,3.447650390625,1.40779057617187,14.5136504638672
5.30697869906736,4.31435139160156,1.94409174804687,15.5000615478516
5.30939514697197,4.61123239746094,2.60010300292969,15.9501714599609
5.3118101819112,4.89374819335937,3.34230551757812,16.5678754882812
5.31422521685044,4.75967290039062,4.23773693847656,16.9701013671875
5.31664025178968,4.4053310546875,5.21457121582031,17.6835734619141
5.31910604827134,4.08929643554688,6.13394465332031,19.0195379882813
5.321571844753,4.213794921875,6.58405456542969,21.3323367919922
5.32403764123465,4.09408483886719,6.44040246582031,24.7368915527344
5.32643657665946,4.45800349121094,5.99508095703125,29.190106640625
5.32883551208426,4.25689055175781,6.16267507324219,33.6098029052734
5.33123444750906,3.37582434082031,7.95832631835937,37.4596791748047
5.33358297723996,1.81001645507812,10.2184526855469,39.1212551269531
5.33593150697086,-0.59376201171875,11.7794721679688,37.3064502685547
5.33828003670176,-2.29364519042969,12.1769096435547,33.1165973632813
5.34062781371999,-3.36624753417969,12.6653267822266,27.9930058105469
5.34297559073822,-4.46279189453125,12.8377093017578,24.6602770996094
5.34532336775645,-4.48673391113281,11.2240173828125,24.9332160888672
5.34767110365055,-2.93529123535156,7.44117875976562,27.2316496826172
5.35001883954465,-1.53707746582031,1.63284553222656,28.730419921875
5.35236657543875,-1.00556469726562,-4.75488449707031,27.3082641357422
5.35486066973129,-1.19710083007812,-9.66778630371094,22.0362320800781
5.35735476402383,-1.79565124511719,-11.645396875,16.4002813720703
5.35984885831637,-2.4133552734375,-12.3157733398437,11.9279126708984
5.36234773472695,-2.78206232910156,-12.8329208984375,8.64306799316406
5.36484661113754,-2.76769711914062,-12.7754600585937,5.92804331054688
5.36734548754812,-2.16435830078125,-12.3636573730469,3.12203896484375
5.3698483404127,-1.46525141601562,-11.5304751953125,-0.699106884765625
5.37235119327728,-0.8044517578125,-10.4818148681641,-6.29196196289062
5.37485404614186,-0.63206923828125,-10.2184526855469,-12.8999585449219
5.37735873049517,-0.387860668945312,-11.1713449462891,-17.1520606933594
5.37986341484847,0.713472094726562,-11.5544172119141,-19.6085115966797
5.38236809920177,1.79086284179687,-11.109095703125,-21.0306673828125
5.38484872287256,2.15478149414062,-10.7068698242187,-20.8870152832031
5.38732934654334,2.58573779296875,-9.78270798339844,-19.0722104248047
5.38980997021413,3.19386501464844,-8.67658681640625,-16.5008378417969
5.39225780970523,3.9839515625,-7.70932934570312,-13.6948334960937
5.39470564919633,4.34787021484375,-6.86657036132813,-10.8600987304687
5.39715348868744,4.59207878417969,-6.25365473632812,-8.83939252929687
5.39959138902381,4.5585599609375,-6.12915625,-7.98226833496094
5.40202928936018,4.4053310546875,-6.40209523925781,-6.77080229492187
5.40446718969655,4.64953962402344,-6.71812985839844,-5.42526096191406
5.41184399671694,-0.684741674804688,6.15788666992187,-3.141192578125
5.41922080373734,-1.44130939941406,7.30710346679687,-3.62003291015625
5.42659761075774,-2.12605107421875,8.41322463378906,-3.92170231933594
5.429018657904,-2.71502468261719,9.41878933105469,-4.10845004882813
5.43143970505027,-3.294421484375,10.26633671875,-4.08450803222656
5.43386075219654,-3.84508786621094,10.8936175537109,-3.81156904296875
5.43627753762405,-4.38138903808594,11.2719014160156,-3.32794030761719
5.43869432305156,-4.85544096679687,11.5161099853516,-2.48039291992187
5.44111110847908,-5.04218869628906,11.6406084716797,-1.73819040527344
5.44352436471823,-5.09964953613281,11.6262432617187,-1.12048637695313
5.44593762095738,-4.92247861328125,11.4011883056641,-0.588973608398437
5.44835087719653,-4.58729038085937,11.0899420898437,-0.464475122070312
5.45076323141745,-4.10366164550781,10.6925046142578,-0.483628735351562
5.45317558563837,-3.52426484375,10.1035310058594,-0.713472094726562
5.45558793985929,-2.93050283203125,9.40921252441406,-1.01514150390625
5.4581958416605,-2.26970317382813,8.64306799316406,-1.29286889648437
5.46080374346172,-1.59453830566406,7.73327136230469,-1.52750065917969
5.46341164526294,-0.914585034179687,6.75164868164062,-1.71424838867187
5.46602857343134,-0.378283862304687,5.68862314453125,-1.87226569824219
5.46864550159975,0.100556469726563,4.59207878417969,-1.88663090820312
5.47126242976816,0.47884033203125,3.6391865234375,-1.762132421875
5.4738425474982,0.986411083984375,2.66714064941406,-1.54186586914062
5.47642266522824,1.35511813964844,1.82917006835937,-1.20667763671875
5.47900278295828,1.68551796875,1.02471831054687,-0.866701000976562
5.4815479170186,1.98718737792969,0.311246215820312,-0.4213794921875
5.48409305107893,2.28885678710938,-0.263362182617187,-0.076614453125
5.48663818513926,2.53306535644531,-0.780509741210937,0.368707055664062
5.48921387757632,2.75333190917969,-1.23540805664062,0.737414111328125
5.49178957001339,2.85867678222656,-1.68551796875,1.15879360351562
5.49436526245046,2.91613762207031,-2.04943662109375,1.39342536621094
5.49694305840315,2.92571442871094,-2.29843359375,1.71424838867187
5.49952085435585,2.94486804199219,-2.51391174316406,1.915361328125
5.50209865030854,2.89698400878906,-2.57137258300781,2.14041628417969
5.50467696850516,2.82994636230469,-2.66714064941406,2.48518132324219
5.50725528670177,2.66235224609375,-2.69587106933594,2.79163913574219
5.50983360489839,2.58573779296875,-2.76290871582031,3.28005627441406
5.52271188072304,-2.30801040039062,-0.454898315429687,2.82036955566406
5.5355901565477,-2.26491477050781,-0.545877978515625,2.48039291992187
5.54846843237235,-2.07816704101562,-0.660799658203125,2.14999309082031
5.55569313663667,1.18273562011719,-1.83395847167969,0.387860668945312
5.56291784090099,1.25935007324219,-1.92014973144531,0.383072265625
5.57014254516531,1.27850368652344,-1.838746875,0.426167895507812
5.57249487383285,1.16358200683594,-1.69030637207031,0.665588061523437
5.57484720250039,1.06302553710937,-1.38384855957031,0.679953271484375
5.57719953116793,1.01035310058594,-1.24498486328125,0.857124194335937
5.57955491354641,0.986411083984375,-1.46046301269531,0.90021982421875
5.58191029592488,0.991199487304687,-1.89141931152344,0.852335791015625
5.58426567830335,0.962469067382812,-2.34631762695312,0.622492431640625
5.58905765698174,0.17238251953125,-2.28406838378906,-1.29286889648437
5.59384963566012,0.100556469726563,-2.26970317382813,-1.27371528320312
5.5986416143385,0.0814028564453125,-2.25533796386719,-1.28329208984375
5.60104831719223,0.0143652099609375,-2.20266552734375,-1.47961662597656
5.60345502004596,-0.1149216796875,-2.19308872070312,-1.74297880859375
5.60586172289969,-0.143652099609375,-2.1068974609375,-1.80522805175781
5.60825871837631,-0.177170922851562,-1.98718737792969,-1.84353527832031
5.61065571385293,-0.229843359375,-1.838746875,-1.81001645507812
5.61305270932955,-0.244208569335937,-1.70945998535156,-1.75734401855469
5.61541731887409,-0.258573779296875,-1.53707746582031,-1.69030637207031
5.61778192841864,-0.258573779296875,-1.36948334960938,-1.57538469238281
5.62014653796318,-0.301669409179687,-1.16358200683594,-1.47482822265625
5.6224787701477,-0.301669409179687,-0.9576806640625,-1.30723410644531
5.62481100233222,-0.359130249023437,-0.78529814453125,-1.09175595703125
5.62714323451674,-0.368707055664062,-0.550666381835937,-0.9576806640625
5.62951274711033,-0.296881005859375,-0.392649072265625,-0.885854614257812
5.63188225970391,-0.292092602539062,-0.13407529296875,-0.742202514648437
5.6342517722975,-0.2681505859375,0.05746083984375,-0.627280834960937
5.63659925797459,-0.201112939453125,0.272938989257812,-0.541089575195312
5.63894674365167,-0.162805712890625,0.584185205078125,-0.44053310546875
5.64129422932875,-0.110133276367187,0.871489404296875,-0.36391865234375
5.64364078965861,-0.028730419921875,1.12048637695313,-0.330399829101562
5.64598734998847,0.0143652099609375,1.39821376953125,-0.234631762695312
5.64833391031833,0.067037646484375,1.69030637207031,-0.162805712890625
5.65068030615166,0.09576806640625,1.97282216796875,-0.047884033203125
5.65302670198499,0.119710083007812,2.23618435058594,-0.047884033203125
5.65537309781833,0.119710083007812,2.62883342285156,-0.119710083007812
5.65771943690252,0.067037646484375,2.89219560546875,-0.28730419921875
5.66006577598672,0.086191259765625,3.07415493164062,-0.311246215820312
5.66241211507092,0.1149216796875,3.04542451171875,-0.311246215820312
5.66498360899454,0.129286889648437,3.12682736816406,-0.397437475585937
5.66755510291815,0.0383072265625,3.09330854492187,-0.622492431640625
5.67012659684177,0.0239420166015625,3.064578125,-0.74699091796875
5.67269912125583,0.0143652099609375,2.93050283203125,-0.8810662109375
5.67527164566989,0.0047884033203125,2.84431157226562,-0.97683427734375
5.67784417008396,-0.028730419921875,2.71023627929688,-1.01992990722656
5.68041703086955,-0.105344873046875,2.52348854980469,-1.05823713378906
5.68298989165514,-0.13407529296875,2.29843359375,-1.15879360351562
5.68556275244073,-0.162805712890625,2.03985981445312,-1.10612116699219
5.68808244969279,-0.272938989257812,1.79565124511719,-1.06302553710937
5.69060214694485,-0.258573779296875,1.54665427246094,-1.12048637695313
5.69312184419691,-0.339976635742188,1.28808049316406,-1.04866032714844
5.6955701146369,-0.40222587890625,0.986411083984375,-1.19231242675781
5.69801838507689,-0.430956298828125,0.799663354492188,-1.25935007324219
5.70046665551688,-0.493205541992187,0.454898315429687,-1.41257897949219
5.70289779738972,-0.502782348632812,0.234631762695312,-1.63284553222656
5.70532893926255,-0.584185205078125,0.028730419921875,-1.72861359863281
5.70776008113538,-0.560243188476563,-0.138863696289063,-1.75255561523437
5.71018756919963,-0.59376201171875,-0.335188232421875,-1.77649763183594
5.71261505726387,-0.622492431640625,-0.464475122070312,-1.65199914550781
5.71504254532811,-0.579396801757812,-0.656011254882812,-1.59453830566406
5.72732361570843,-0.047884033203125,0.028730419921875,0.2681505859375
5.73960468608874,-0.0814028564453125,0.067037646484375,0.225054956054687
5.75188575646906,-0.181959326171875,-0.0047884033203125,0.244208569335937
5.75440767466839,-0.263362182617187,-0.0526724365234375,0.253785375976562
5.75692959286771,-0.3447650390625,-0.067037646484375,0.215478149414062
5.75945151106704,-0.411802685546875,-0.110133276367187,0.311246215820312
5.76195543250801,-0.512359155273437,-0.244208569335937,0.330399829101562
5.76445935394898,-0.55545478515625,-0.301669409179687,0.263362182617187
5.76696327538995,-0.569819995117188,-0.258573779296875,0.186747729492187
5.76946639670073,-0.646434448242187,-0.28730419921875,0.05746083984375
5.7719695180115,-0.718260498046875,-0.292092602539062,-0.110133276367187
5.77447263932227,-0.78529814453125,-0.239420166015625,-0.234631762695312
5.77697550976498,-0.809240161132812,-0.201112939453125,-0.28730419921875
5.77947838020768,-0.852335791015625,-0.13407529296875,-0.36391865234375
5.78198125065039,-0.9193734375,-0.124498486328125,-0.44053310546875
5.78448411816341,-0.93852705078125,-0.0718260498046875,-0.430956298828125
5.78698698567644,-0.933738647460937,-0.086191259765625,-0.397437475585937
5.78948985318947,-0.928950244140625,-0.124498486328125,-0.373495458984375
5.79199273263825,-0.885854614257812,-0.158017309570312,-0.354341845703125
5.79449561208704,-0.818816967773437,-0.148440502929687,-0.330399829101562
5.79699849153583,-0.770932934570312,-0.129286889648437,-0.2681505859375
5.79927574815476,-0.761356127929687,-0.167594116210937,-0.282515795898438
5.80155300477368,-0.6512228515625,-0.220266552734375,-0.244208569335937
5.8038302613926,-0.565031591796875,-0.196324536132812,-0.234631762695312
5.80847207107142,0.0909796630859375,-0.047884033203125,-0.0718260498046875
5.81311388075024,0.17238251953125,0.0,0.0047884033203125
5.81775569042905,0.2681505859375,0.028730419921875,-0.0430956298828125
5.82009475900544,0.311246215820312,0.0718260498046875,0.0622492431640625
5.82243382758183,0.411802685546875,0.0383072265625,0.110133276367187
5.82477289615822,0.51714755859375,0.0718260498046875,0.205901342773437
5.82704708496031,0.598550415039062,0.0909796630859375,0.292092602539062
5.8293212737624,0.627280834960937,0.0909796630859375,0.296881005859375
5.83159546256449,0.636857641601562,0.119710083007812,0.296881005859375
5.83386796147942,0.67037646484375,0.1149216796875,0.3447650390625
5.83614046039435,0.74699091796875,0.0622492431640625,0.296881005859375
5.83841295930928,0.742202514648437,0.129286889648437,0.320823022460937
5.84068264756883,0.74699091796875,0.17238251953125,0.263362182617187
5.84295233582838,0.761356127929687,0.258573779296875,0.21068974609375
5.84522202408793,0.780509741210937,0.36391865234375,0.181959326171875
5.8475355280846,0.770932934570312,0.550666381835937,0.234631762695312
5.84984903208128,0.780509741210937,0.775721337890625,0.201112939453125
5.85216253607795,0.775721337890625,0.933738647460937,0.301669409179687
5.85444596011706,0.780509741210937,1.02471831054687,0.282515795898438
5.85672938415617,0.775721337890625,1.17794721679687,0.186747729492187
5.85901280819527,0.8044517578125,1.3407529296875,0.301669409179687
5.86126793775859,0.790086547851562,1.53707746582031,0.47884033203125
5.8635230673219,0.799663354492188,1.7238251953125,0.512359155273437
5.86577819688521,0.799663354492188,1.86268889160156,0.526724365234375
5.86800317010207,0.799663354492188,2.02549460449219,0.368707055664062
5.87022814331893,0.794874951171875,2.1835119140625,0.387860668945312
5.87245311653579,0.732625708007812,2.29364519042969,0.40222587890625
5.8746555681417,0.660799658203125,2.375048046875,0.44053310546875
5.8768580197476,0.612915625,2.4133552734375,0.63206923828125
5.8790604713535,0.565031591796875,2.38462485351562,0.794874951171875
5.88132343467815,0.565031591796875,2.27449157714844,1.18273562011719
5.88358639800281,0.545877978515625,2.25054956054688,1.52750065917969
5.88584936132746,0.521935961914062,2.02070620117187,1.98239897460937
5.88811343717381,0.4979939453125,1.90099611816406,2.65277543945312
5.89037751302016,0.55545478515625,1.72861359863281,3.34230551757812
5.89264158886651,0.622492431640625,1.608903515625,4.16591088867187
5.89490596354099,0.718260498046875,1.46525141601562,4.95599743652344
5.89717033821546,0.794874951171875,1.38384855957031,5.79396801757812
5.89943471288994,0.948103857421875,1.35990654296875,6.60799658203125
5.90169922525974,1.00077629394531,1.29286889648437,7.29752666015625
5.90396373762953,1.15400520019531,1.14442839355469,8.01578715820312
5.90622824999932,1.21625444335937,0.995987890625,8.27914934082031
5.90849289057007,1.23061965332031,0.761356127929687,8.63349118652344
5.91075753114081,1.06781394042969,0.512359155273437,8.93037219238281
5.91302217171155,0.948103857421875,0.181959326171875,9.03092866210937
5.91535566476711,1.01035310058594,-0.220266552734375,9.193734375
5.91768915782266,0.7278373046875,-0.469263525390625,9.36611689453125
5.92002265087822,0.392649072265625,-0.7278373046875,9.57201823730469
5.92235356064113,0.047884033203125,-0.924161840820312,9.80665
5.92468447040404,-0.416591088867187,-1.10612116699219,10.0125513427734
5.92701538016696,-0.684741674804688,-1.08696755371094,10.7595422607422
5.92933120361259,-0.63206923828125,-0.761356127929687,12.1433908203125
5.93164702705823,-0.047884033203125,-0.09576806640625,14.4178823974609
5.93396285050386,1.62326872558594,0.569819995117188,17.0754462402344
5.93626362170341,3.55778366699219,0.751779321289062,18.0857993408203
5.93856439290295,4.213794921875,0.435744702148437,15.8544033935547
5.9408651641025,3.72537778320312,0.124498486328125,8.98304462890625
5.94315076456636,3.4859576171875,0.809240161132812,1.04866032714844
5.94543636503023,3.07894333496094,2.54743056640625,-4.15154567871094
5.9477219654941,2.52348854980469,4.64475122070312,-3.46201560058594
5.95006677148368,2.24576115722656,5.90888969726563,1.62326872558594
5.95241157747327,2.39420166015625,6.41167204589844,6.86178195800781
5.95475638346285,2.99754047851562,7.25921943359375,10.496180078125
5.95710121506007,3.39497795410156,8.78193168945312,11.5975128417969
5.9594460466573,3.63439812011719,10.8313683105469,10.5440641113281
5.96179087825452,4.27604416503906,13.1537439208984,8.67658681640625
5.96413658637084,4.65432802734375,15.4952731445312,7.58961926269531
5.96648229448715,4.58250197753906,17.6692082519531,7.91523068847656
5.96882800260347,4.75488449707031,19.689914453125,8.60476076660156
5.9711737420783,5.35822331542969,22.0410204833984,8.69095202636719
5.97351948155312,6.15788666992187,24.7608335693359,7.99184514160156
5.97586522102795,6.73728347167969,28.2180607666016,6.76601389160156
5.97821096647066,6.52180532226562,32.4941049316406,5.90410129394531
5.98055671191337,5.6311623046875,37.5889660644531,6.03817658691406
5.98290245735608,4.18506450195312,42.9136705566406,7.09641372070312
5.98524394748195,3.25132585449219,48.5256792480469,8.93037219238281
5.98758543760782,2.40856687011719,53.3571781982422,10.9462899902344
5.98992692773369,1.59453830566406,56.2014897705078,11.4586491455078
5.99234247330661,1.55144267578125,54.9996005371094,10.1226846191406
5.99475801887952,1.78607443847656,51.0778982177734,8.35576379394531
5.99717356445244,2.01112939453125,45.2456229736328,6.92403120117187
5.99958745876668,2.27927998046875,40.1842806640625,6.00944616699219
6.00200135308092,1.86747729492187,35.4677033935547,5.16189877929687
6.00441524739516,0.924161840820312,31.3400997314453,4.23294853515625
6.00682786230402,0.15322890625,28.0025826171875,3.33751711425781
6.00924047721287,-0.833182177734375,25.5509201171875,3.15076938476562
6.01165309212173,-1.07260234375,23.4535994628906,3.31357509765625
6.01406569097156,-1.15879360351562,22.141576953125,4.6351744140625
6.01647828982138,-1.25456166992187,20.9971485595703,5.88973608398438
6.01889088867121,-1.38384855957031,20.2693112548828,5.68383474121094
6.02130570529447,-1.19231242675781,20.6619603271484,4.11802685546875
6.02372052191772,-1.06302553710937,21.7345626708984,2.38462485351562
6.02613533854098,-1.08696755371094,23.5637327392578,1.31202250976562
6.02855090353664,-1.00556469726562,25.8238591064453,1.26892687988281
6.0309664685323,-1.1109095703125,28.1414463134766,2.87783039550781
6.03338203352796,-1.24977326660156,29.8461178955078,5.94719692382813
6.039321098605,-8.14986245117187,20.8247660400391,1.31202250976562
6.04526016368204,-6.99585725097656,19.6133,-1.90099611816406
6.05119922875909,-6.29675036621094,18.7609642089844,-4.39096584472656
6.05816078084242,3.02148249511719,18.5742164794922,0.05746083984375
6.06512233292575,2.11168586425781,19.4073986572266,0.622492431640625
6.07208388500908,1.11569797363281,20.0490447021484,1.47003981933594
6.07442453431463,0.0622492431640625,20.5326734375,2.50433493652344
6.07676518362018,-0.790086547851562,20.68590234375,3.41891997070312
6.07910583292573,-1.55144267578125,20.5661922607422,4.18027609863281
6.08144608249171,-2.21224233398438,20.4464821777344,4.22337172851562
6.08378633205768,-2.65756384277344,20.4033865478516,3.90254870605469
6.08612658162366,-2.80600434570312,20.2740996582031,3.294421484375
6.08846684345092,-2.86825358886719,20.1160823486328,2.61446821289062
6.09080710527818,-2.56179577636719,19.7090680664062,2.20745393066406
6.09314736710544,-2.12605107421875,19.1248828613281,1.96803376464844
6.09548763457506,-1.5705962890625,18.3587383300781,1.92972653808594
6.09782790204468,-0.952892260742187,17.4585185058594,1.81001645507812
6.10016816951429,-0.181959326171875,16.5774522949219,1.73340200195312
6.10250682332289,0.550666381835937,15.8974990234375,1.71424838867187
6.10484547713149,1.27850368652344,15.3516210449219,1.79086284179687
6.10718413094008,1.99197578125,14.8584155029297,1.82438166503906
6.10937607527602,2.52348854980469,14.4130939941406,1.7238251953125
6.11156801961196,2.74854350585938,13.9581956787109,1.62805712890625
6.1137599639479,3.04542451171875,13.6325842529297,1.82917006835937
6.1160225453281,3.16034619140625,13.4314713134766,2.20266552734375
6.11828512670831,3.2561142578125,13.4362597167969,3.00232888183594
6.12054770808851,3.32315190429687,13.48414375,4.00789357910156
6.12281322469007,3.24653745117187,13.4458365234375,5.01345827636719
6.12507874129163,3.20344182128906,13.4602017333984,5.95677373046875
6.12734425789318,3.09809694824219,13.4171061035156,6.50744011230469
6.12961360023259,2.82515795898437,13.5703350097656,6.65109221191406
6.131882942572,2.57616098632812,13.8001783691406,6.58405456542969
6.13415228491141,2.29364519042969,14.2167694580078,6.31590397949219
6.13641990296696,2.08295544433594,14.5471692871094,5.88494768066406
6.13868752102252,1.86747729492187,14.9350299560547,5.52102902832031
6.14095513907807,1.44130939941406,15.3803514648437,5.52102902832031
6.14322322523259,1.11569797363281,15.6868092773437,5.93283171386719
6.1454913113871,0.9576806640625,15.7490585205078,6.16267507324219
6.14775939754162,0.689530078125,15.6485020507812,6.23450112304687
6.15341460451087,-0.047884033203125,12.9669961914062,4.74051928710937
6.15906981148013,-0.148440502929687,13.0531874511719,4.79319172363281
6.16472501844938,-0.1915361328125,13.2016279541016,4.82192214355469
6.16697397915824,-0.258573779296875,13.5847002197266,4.91769020996094
6.16922293986709,-0.311246215820312,14.1305781982422,5.0182466796875
6.17147190057595,-0.292092602539062,14.6620909667969,4.97515104980469
6.17756974108237,0.0814028564453125,16.3859161621094,4.77403811035156
6.18366758158878,0.13407529296875,16.1464959960937,5.08049592285156
6.18976542209519,0.282515795898438,15.8496149902344,5.33906970214844
6.19228196608314,0.354341845703125,15.5335803710937,5.53539423828125
6.19479851007108,0.474051928710937,15.16966171875,5.75087238769531
6.19731505405903,0.550666381835937,14.7770126464844,5.76044919433594
6.19982507181929,0.675164868164063,14.2838071044922,5.78917961425781
6.20233508957956,0.818816967773437,13.8528508056641,5.79396801757812
6.20484510733983,1.01992990722656,13.4985089599609,5.81312163085937
6.20735335728558,1.16837041015625,13.0627642578125,5.99029255371094
6.20986160723132,1.25935007324219,12.6701151855469,6.18182868652344
6.21236985717707,1.35990654296875,12.3014081298828,6.67982263183594
6.21494434838801,1.39821376953125,11.8943938476563,6.99585725097656
6.21751883959895,1.39821376953125,11.5639940185547,7.37414111328125
6.22009333080988,1.40779057617187,11.3580926757812,7.70454094238281
6.22267161965537,1.31202250976562,11.1761333496094,7.75242497558594
6.22524990850085,1.30723410644531,11.0229044433594,7.738059765625
6.22782819734633,1.19231242675781,11.0085392333984,7.53215842285156
6.23041055932549,1.04866032714844,11.0372696533203,7.30710346679687
6.23299292130465,0.86191259765625,11.0420580566406,7.18739338378906
6.23557528328381,0.641646044921875,11.0755768798828,7.05331809082031
6.25411337499932,-1.1875240234375,13.2303583740234,7.37892951660156
6.27265146671483,-1.1875240234375,13.2303583740234,7.34062229003906
6.29118955843033,-1.17794721679687,13.2016279541016,7.28316145019531
6.29353776958485,-1.16837041015625,13.2207815673828,7.17781657714844
6.29588598073937,-1.13006318359375,13.2207815673828,7.22091220703125
6.29823419189388,-1.04387192382812,13.1968395507812,7.29752666015625
6.30058045545725,-0.9193734375,13.1633207275391,7.37892951660156
6.30292671902062,-0.842758984375,13.1489555175781,7.53215842285156
6.30527298258399,-0.74699091796875,13.1345903076172,7.53215842285156
6.30761907676801,-0.588973608398437,13.0771294677734,7.44596716308594
6.30996517095204,-0.454898315429687,13.0771294677734,7.42681354980469
6.31231126513607,-0.311246215820312,13.1441671142578,7.431601953125
6.31590141381772,0.205901342773437,13.3500684570312,7.4699091796875
6.31949156249937,0.2681505859375,13.3740104736328,7.44117875976562
6.32308171118101,0.335188232421875,13.4266829101562,7.43639035644531
6.32548077751131,0.387860668945312,13.4506249267578,7.57525405273437
6.32787984384161,0.44053310546875,13.5128741699219,7.59919606933594
6.33027891017191,0.493205541992187,13.560758203125,7.69496413574219
6.33265683177565,0.560243188476563,13.560758203125,7.72369455566406
6.33503475337939,0.541089575195312,13.5894886230469,7.81467421875
6.33741267498313,0.560243188476563,13.6230074462891,7.88650026855469
6.33976918721186,0.560243188476563,13.6565262695312,7.81946262207031
6.34212569944059,0.545877978515625,13.63737265625,7.81946262207031
6.34448221166932,0.483628735351562,13.63737265625,7.71890615234375
6.34683324009815,0.454898315429687,13.6708914794922,7.59440766601562
6.34918426852697,0.40222587890625,13.6517378662109,7.44117875976562
6.3515352969558,0.316034619140625,13.6756798828125,7.31189187011719
6.35403436791934,0.229843359375,13.7044103027344,7.278373046875
6.35653343888288,0.17238251953125,13.6948334960937,7.32146867675781
6.35903250984642,0.0718260498046875,13.7235639160156,7.36935270996094
6.36160698190588,0.0,13.7522943359375,7.48427438964844
6.36418145396534,-0.05746083984375,13.7331407226563,7.49385119628906
6.3667559260248,-0.110133276367187,13.6708914794922,7.44596716308594
6.36933628474876,-0.201112939453125,13.6325842529297,7.45554396972656
6.37191664347271,-0.225054956054687,13.5751234130859,7.42202514648437
6.37449700219667,-0.282515795898438,13.5128741699219,7.431601953125
6.37696487822749,-0.301669409179687,13.4745669433594,7.47469758300781
6.37943275425831,-0.292092602539062,13.407529296875,7.46033237304687
6.38190063028913,-0.282515795898438,13.3021844238281,7.54173522949219
6.38421744528479,-0.277727392578125,13.2112047607422,7.584830859375
6.38653426028045,-0.3064578125,13.1824743408203,7.47948598632812
6.38885107527611,-0.258573779296875,13.0867062744141,7.38371791992187
6.39112866094234,-0.234631762695312,13.0053034179687,7.35977590332031
6.39340624660857,-0.215478149414062,12.9047469482422,7.21133540039062
6.39568383227479,-0.1915361328125,12.8329208984375,7.14429775390625
6.39795917038243,-0.158017309570312,12.7467296386719,7.09641372070312
6.40023450849008,-0.158017309570312,12.6270195556641,6.95755002441406
6.40250984659772,-0.158017309570312,12.5647703125,6.92881960449219
6.40805157693084,-0.51714755859375,11.5975128417969,6.34942280273437
6.41359330726396,-0.550666381835937,11.5783592285156,6.46434448242187
6.41913503759708,-0.579396801757812,11.5496288085937,6.49307490234375
6.42585688056341,-0.407014282226562,11.3916114990234,5.79396801757812
6.43257872352975,-0.430956298828125,11.3054202392578,5.67425793457031
6.43930056649608,-0.430956298828125,11.2719014160156,5.50666381835937
6.44156915482676,-0.483628735351562,11.2288057861328,5.41089575195312
6.44383774315744,-0.4979939453125,11.1330377197266,5.34385810546875
6.44610633148812,-0.531512768554687,11.0851536865234,5.31991608886719
6.4483784517319,-0.59376201171875,11.0420580566406,5.28160886230469
6.45065057197569,-0.565031591796875,10.9606552001953,5.18105239257812
6.45292269221947,-0.608127221679687,10.9271363769531,5.20499440917969
6.45519709206756,-0.541089575195312,10.8840407470703,5.16668718261719
6.45747149191565,-0.598550415039062,10.8648871337891,5.14274516601562
6.45974589176374,-0.598550415039062,10.7643306640625,5.22893642578125
6.46208189591956,-0.588973608398437,10.7356002441406,5.27682045898437
6.46441790007538,-0.545877978515625,10.649408984375,5.32949289550781
6.4667539042312,-0.531512768554687,10.5823713378906,5.44441457519531
6.46909098547036,-0.588973608398437,10.5344873046875,5.36780012207031
6.47142806670951,-0.526724365234375,10.4530844482422,5.31991608886719
6.47376514794866,-0.565031591796875,10.3525279785156,5.30555087890625
6.47610287429414,-0.560243188476563,10.3477395751953,5.22414802246094
6.47844060063963,-0.483628735351562,10.2711251220703,5.14274516601562
6.48077832698511,-0.507570751953125,10.2519715087891,5.02782348632813
6.4831880783957,-0.483628735351562,10.2328178955078,4.89853659667969
6.48559782980628,-0.45968671875,10.2088758789062,4.7884033203125
6.48800758121687,-0.44053310546875,10.1992990722656,4.64475122070312
6.49041453803111,-0.359130249023437,10.1466266357422,4.52504113769531
6.49282149484535,-0.411802685546875,10.1322614257812,4.34787021484375
6.49522845165959,-0.320823022460937,10.1131078125,4.34308181152344
6.49768123182452,-0.330399829101562,10.0795889892578,4.34787021484375
6.50013401198945,-0.24899697265625,10.0652237792969,4.30956298828125
6.50258679215438,-0.277727392578125,9.96466730957031,4.23294853515625
6.50501182568303,-0.253785375976562,9.90720646972656,4.30477458496094
6.50743685921167,-0.229843359375,9.87847604980469,4.213794921875
6.50986189274031,-0.301669409179687,9.76355437011719,4.24731374511719
6.51228706841306,-0.24899697265625,9.72524714355469,4.17069929199219
6.5147122440858,-0.296881005859375,9.70130512695312,4.13718046875
6.51713741975855,-0.301669409179687,9.63426748046875,4.11323845214844
6.51956264469344,-0.272938989257812,9.576806640625,4.01268198242188
6.52198786962833,-0.320823022460937,9.58638344726563,3.8690298828125
6.52441309456322,-0.349553442382812,9.60553706054687,3.67270534667969
6.52926109152503,-0.301669409179687,9.6917283203125,3.25132585449219
6.53410908848684,-0.292092602539062,9.65820949707031,3.39976635742187
6.53895708544865,-0.339976635742188,9.67257470703125,3.46680400390625
6.54131091357366,-0.36391865234375,9.64863269042969,3.49553442382812
6.54366474169866,-0.45968671875,9.67257470703125,3.51947644042969
6.54601856982367,-0.435744702148437,9.63426748046875,3.53863005371094
6.54851554334798,-0.445321508789062,9.61990227050781,3.44286198730469
6.55101251687229,-0.4979939453125,9.57201823730469,3.29920988769531
6.5535094903966,-0.550666381835937,9.54807622070313,3.28005627441406
6.55850624229548,-0.612915625,9.47625017089844,3.30399829101562
6.56350299419435,-0.588973608398437,9.44751975097656,3.23217224121094
6.56849974609323,-0.608127221679687,9.43794294433594,3.21780703125
6.57100256336754,-0.531512768554687,9.423577734375,3.18428820800781
6.57350538064185,-0.526724365234375,9.39005891113281,3.11725056152344
6.57600819791616,-0.507570751953125,9.33259807128906,3.16034619140625
6.5782877923172,-0.450109912109375,9.34217487792969,3.13161577148437
6.58056738671823,-0.4213794921875,9.32302126464844,2.99275207519531
6.58284698111927,-0.368707055664062,9.24640681152344,3.064578125
6.58512571332413,-0.32561142578125,9.24640681152344,3.03105930175781
6.58740444552899,-0.282515795898438,9.20331118164062,2.99754047851562
6.58968317773385,-0.215478149414062,9.18415756835937,2.94007963867187
6.5919617112625,-0.244208569335937,9.15063874511719,2.93050283203125
6.59424024479114,-0.215478149414062,9.11233151855469,2.86825358886719
6.59651877831978,-0.15322890625,9.12669672851562,2.84431157226562
6.59879708669652,-0.1149216796875,9.08838950195312,2.72938989257813
6.60107539507326,-0.086191259765625,9.117119921875,2.69587106933594
6.60335370345,-0.0718260498046875,9.06444748535156,2.62404501953125
6.61029223459149,-0.181959326171875,8.82981572265625,2.54743056640625
6.61723076573298,-0.181959326171875,8.8872765625,2.62883342285156
6.62416929687446,-0.220266552734375,8.87769975585937,2.73417829589844
6.62649169599917,-0.234631762695312,8.87291135253906,2.72460148925781
6.62881409512388,-0.21068974609375,8.86812294921875,2.65756384277344
6.63113649424858,-0.24899697265625,8.86812294921875,2.60010300292969
6.63344641447186,-0.320823022460937,8.86812294921875,2.60967980957031
6.63575633469515,-0.320823022460937,8.8489693359375,2.59531459960937
6.63806625491843,-0.311246215820312,8.87291135253906,2.59052619628906
6.64036346577153,-0.339976635742188,8.90164177246094,2.62883342285156
6.64266067662464,-0.3064578125,8.90164177246094,2.64798703613281
6.64495788747775,-0.320823022460937,8.90164177246094,2.6431986328125
6.6472423376369,-0.330399829101562,8.91600698242187,2.5665841796875
6.64952678779605,-0.32561142578125,8.82502731933594,2.46602770996094
6.65181123795519,-0.28730419921875,8.85375773925781,2.40856687011719
6.6541558770611,-0.215478149414062,8.85854614257812,2.36068283691406
6.65650051616701,-0.225054956054687,8.86812294921875,2.36547124023437
6.65884515527292,-0.196324536132812,8.85375773925781,2.36068283691406
6.66111393825904,-0.158017309570312,8.83460412597656,2.28885678710938
6.66338272124515,-0.100556469726563,8.81545051269531,2.33195241699219
6.66565150423127,-0.100556469726563,8.810662109375,2.23618435058594
6.66791762228683,-0.110133276367187,8.76277807617187,2.1835119140625
6.67018374034239,-0.1149216796875,8.79629689941406,2.12605107421875
6.67244985839795,-0.1149216796875,8.76277807617187,2.07816704101562
6.67486628548127,-0.1149216796875,8.72447084960938,1.98239897460937
6.6772827125646,-0.124498486328125,8.75798967285156,2.04943662109375
6.67969913964793,-0.148440502929687,8.76756647949219,2.01591779785156
6.68212038943092,-0.21068974609375,8.72925925292969,2.0302830078125
6.68454163921391,-0.196324536132812,8.72447084960938,2.01591779785156
6.6869628889969,-0.225054956054687,8.64306799316406,2.00634099121094
6.68938442285106,-0.229843359375,8.657433203125,1.98239897460937
6.69180595670523,-0.263362182617187,8.64785639648438,2.02070620117187
6.69422749055939,-0.28730419921875,8.62870278320312,2.06380183105469
6.69664909147085,-0.3064578125,8.64306799316406,2.09253225097656
6.6990706923823,-0.301669409179687,8.657433203125,2.14999309082031
6.70149229329376,-0.339976635742188,8.657433203125,2.15478149414062
6.70391396050297,-0.36391865234375,8.65264479980469,2.16914670410156
6.70633562771217,-0.330399829101562,8.63827958984375,2.25533796386719
6.70875729492138,-0.349553442382812,8.62391437988281,2.21224233398438
6.71114609288145,-0.359130249023437,8.58560715332031,2.24097275390625
6.71353489084153,-0.368707055664062,8.5425115234375,2.21703073730469
6.7159236888016,-0.397437475585937,8.52814631347656,2.1452046875
6.71827955588059,-0.36391865234375,8.51856950683594,2.22660754394531
6.72063542295958,-0.416591088867187,8.53293471679688,2.23139594726563
6.72299129003857,-0.430956298828125,8.5425115234375,2.26491477050781
6.73135553303987,-0.181959326171875,7.62792648925781,1.9536685546875
6.73971977604116,-0.205901342773437,7.6231380859375,1.95845695800781
6.74808401904245,-0.201112939453125,7.49385119628906,1.97282216796875
6.75046351144697,-0.234631762695312,7.47948598632812,2.04943662109375
6.75284300385148,-0.225054956054687,7.42681354980469,2.04943662109375
6.755222496256,-0.234631762695312,7.36456430664062,2.01591779785156
6.75757096533152,-0.225054956054687,7.40287153320312,2.02070620117187
6.75991943440704,-0.244208569335937,7.37892951660156,2.04464821777344
6.76226790348257,-0.282515795898438,7.40765993652344,2.03507141113281
6.76461652213491,-0.234631762695312,7.431601953125,1.95845695800781
6.76696514078725,-0.215478149414062,7.38371791992187,1.93451494140625
6.7693137594396,-0.21068974609375,7.41244833984375,1.86747729492187
6.77166150585887,-0.13407529296875,7.50342800292969,1.762132421875
6.77400925227814,-0.1149216796875,7.55131203613281,1.69988317871094
6.77635699869741,-0.105344873046875,7.58961926269531,1.59932670898438
6.77884340988447,-0.100556469726563,7.58961926269531,1.52750065917969
6.78132982107154,-0.0526724365234375,7.62792648925781,1.63284553222656
6.7838162322586,-0.0718260498046875,7.6614453125,1.58496149902344
6.78627324424861,-0.0622492431640625,7.61834968261719,1.608903515625
6.78873025623863,-0.0814028564453125,7.6231380859375,1.71424838867187
6.79118726822864,-0.086191259765625,7.60877287597656,1.90099611816406
6.79361335091093,-0.124498486328125,7.65186850585937,1.92493813476562
6.79603943359322,-0.0909796630859375,7.68059892578125,2.06380183105469
6.79846551627551,-0.119710083007812,7.6614453125,2.07816704101562
6.80089082600859,-0.100556469726563,7.67102211914062,2.04464821777344
6.80331613574167,-0.0909796630859375,7.72848295898437,1.92972653808594
6.80574144547475,-0.105344873046875,7.71411774902344,1.81480485839844
6.80816649495392,-0.067037646484375,7.72848295898437,1.72861359863281
6.81059154443308,-0.0718260498046875,7.7763669921875,1.62805712890625
6.81301659391225,-0.0047884033203125,7.74763657226562,1.5322890625
6.81544233127119,0.01915361328125,7.75721337890625,1.44130939941406
6.81786806863013,0.05746083984375,7.77157858886719,1.32638771972656
6.82029380598907,0.0718260498046875,7.79073220214844,1.30723410644531
6.82283000786624,0.124498486328125,7.75721337890625,1.32159931640625
6.82536620974341,0.196324536132812,7.738059765625,1.28329208984375
6.82790241162058,0.24899697265625,7.70454094238281,1.30723410644531
6.83455852449494,0.21068974609375,7.30710346679687,1.48919343261719
6.84121463736929,0.148440502929687,7.23527741699219,1.44130939941406
6.84787075024364,0.162805712890625,7.19218178710937,1.49877023925781
6.85060273320804,0.124498486328125,7.15387456054687,1.52271225585937
6.85333471617245,0.167594116210937,7.13950935058594,1.51792385253906
6.85606669913685,0.110133276367187,7.10120212402344,1.54186586914062
6.85879967602487,0.100556469726563,7.1634513671875,1.56101948242187
6.8615326529129,0.124498486328125,7.15387456054687,1.62326872558594
6.86426562980092,0.105344873046875,7.07726010742187,1.60411511230469
6.86692854733563,0.0909796630859375,7.11077893066406,1.47961662597656
6.86959146487035,0.129286889648437,7.07247170410156,1.4173673828125
6.87225438240507,0.105344873046875,7.09641372070312,1.39821376953125
6.8749160517844,0.148440502929687,7.12993254394531,1.28808049316406
6.87757772116374,0.17238251953125,7.14429775390625,1.18273562011719
6.88023939054307,0.24899697265625,7.18739338378906,1.13485158691406
6.88290022051269,0.225054956054687,7.1634513671875,1.10612116699219
6.8855610504823,0.320823022460937,7.25921943359375,1.02471831054687
6.88822188045192,0.3064578125,7.24485422363281,0.952892260742187
6.89605781230955,0.82360537109375,8.10676682128906,0.646434448242187
6.90389374416718,0.818816967773437,8.197746484375,0.694318481445312
6.91172967602481,0.818816967773437,8.22168850097656,0.76614453125
6.93144310951005,-0.158017309570312,8.6957404296875,0.78529814453125
6.95115654299528,-0.138863696289063,8.657433203125,0.847547387695312
6.97086997648051,-0.158017309570312,8.66701000976562,0.8810662109375
6.9733522692214,-0.162805712890625,8.67658681640625,0.967257470703125
6.97583456196229,-0.205901342773437,8.68137521972656,0.962469067382812
6.97831685470318,-0.201112939453125,8.65264479980469,1.01992990722656
6.98077526621577,-0.215478149414062,8.64306799316406,1.01992990722656
6.98323367772836,-0.201112939453125,8.65264479980469,1.04387192382812
6.98569208924094,-0.239420166015625,8.61433757324219,1.06302553710937
6.98812660118756,-0.229843359375,8.59039555664062,1.09175595703125
6.99056111313418,-0.225054956054687,8.59518395996094,1.07739074707031
6.99299562508079,-0.1915361328125,8.58081875,1.02950671386719
6.99542409258297,-0.205901342773437,8.51378110351562,1.02471831054687
6.99785256008515,-0.17238251953125,8.504204296875,1.01514150390625
7.00028102758732,-0.17238251953125,8.504204296875,1.01035310058594
7.00277720244626,-0.129286889648437,8.52814631347656,1.00556469726562
7.00527337730521,-0.09576806640625,8.50899270019531,0.97683427734375
7.00776955216415,-0.076614453125,8.52335791015625,0.9576806640625
7.01057686276528,-0.0909796630859375,8.52335791015625,1.06781394042969
7.0133841733664,-0.076614453125,8.55687673339844,1.07739074707031
7.01619148396753,-0.09576806640625,8.55687673339844,1.11569797363281
7.01915348630043,-0.0239420166015625,8.60954916992188,1.13006318359375
7.02211548863334,-0.0047884033203125,8.62870278320312,1.149216796875
7.02507749096624,0.028730419921875,8.63349118652344,1.21625444335937
7.02804254852918,0.0622492431640625,8.657433203125,1.29765729980469
7.03100760609211,0.05746083984375,8.63349118652344,1.34554133300781
7.03397266365505,0.0526724365234375,8.68616362304688,1.40300217285156
7.03686332641547,0.0814028564453125,8.71968244628906,1.35032973632813
7.03975398917588,0.0814028564453125,8.64306799316406,1.41257897949219
7.0426446519363,0.0526724365234375,8.70052883300781,1.38384855957031
7.04549802085991,0.0335188232421875,8.72447084960938,1.31681091308594
7.04835138978353,0.0335188232421875,8.75320126953125,1.32638771972656
7.05120475870714,0.0143652099609375,8.7723548828125,1.27371528320312
7.05402013663683,-0.0239420166015625,8.78193168945312,1.21625444335937
7.05683551456652,-0.0526724365234375,8.79629689941406,1.20667763671875
7.05965089249621,-0.0718260498046875,8.86812294921875,1.17794721679687
7.06667226030762,-0.263362182617187,9.31344445800781,0.90021982421875
7.07369362811904,-0.311246215820312,9.37569370117187,0.948103857421875
7.08071499593046,-0.330399829101562,9.49061538085937,0.871489404296875
7.1023242755257,0.0909796630859375,10.1035310058594,-0.196324536132812
7.12393355512095,0.110133276367187,10.0795889892578,-0.196324536132812
7.1455428347162,0.086191259765625,10.0748005859375,-0.220266552734375
7.15904140818702,-0.272938989257812,10.1657802490234,-0.0239420166015625
7.17253998165785,-0.296881005859375,10.1418382324219,0.0047884033203125
7.18603855512867,-0.225054956054687,10.1609918457031,-0.009576806640625
7.19343852500638,0.1915361328125,9.9981861328125,-0.311246215820312
7.20083849488409,0.15322890625,10.0029745361328,-0.28730419921875
7.20823846476181,0.124498486328125,10.0125513427734,-0.28730419921875
7.21072849669772,0.181959326171875,10.0460701660156,-0.225054956054687
7.21321852863364,0.1915361328125,10.0221281494141,-0.296881005859375
7.21570856056956,0.196324536132812,10.0652237792969,-0.186747729492187
7.21819991156239,0.186747729492187,10.0508585693359,-0.1915361328125
7.22069126255523,0.201112939453125,10.0939541992188,-0.1915361328125
7.22318261354806,0.177170922851562,10.0700121826172,-0.205901342773437
7.22567518908827,0.225054956054687,10.0556469726563,-0.196324536132812
7.22816776462847,0.205901342773437,10.0652237792969,-0.196324536132812
7.23066034016868,0.15322890625,10.0939541992188,-0.253785375976562
7.23315415635791,0.21068974609375,10.0939541992188,-0.181959326171875
7.23564797254713,0.201112939453125,10.1370498291016,-0.263362182617187
7.23814178873636,0.17238251953125,10.0748005859375,-0.32561142578125
7.24070425943948,0.196324536132812,10.1322614257812,-0.28730419921875
7.24326673014261,0.17238251953125,10.0700121826172,-0.234631762695312
7.24582920084573,0.177170922851562,10.1131078125,-0.229843359375
7.24862441265128,0.196324536132812,10.1035310058594,-0.201112939453125
7.25141962445683,0.196324536132812,10.1370498291016,-0.186747729492187
7.25421483626238,0.244208569335937,10.1322614257812,-0.205901342773437
7.25701093088044,0.234631762695312,10.1418382324219,-0.339976635742188
7.2598070254985,0.2681505859375,10.1083194091797,-0.301669409179687
7.26260312011656,0.1915361328125,10.1083194091797,-0.373495458984375
7.26535650935809,0.263362182617187,10.1035310058594,-0.426167895507812
7.26810989859962,0.24899697265625,10.0939541992188,-0.387860668945312
7.27086328784115,0.239420166015625,10.0652237792969,-0.55545478515625
7.27360220412804,0.263362182617187,10.0460701660156,-0.55545478515625
7.27634112041494,0.292092602539062,10.0412817626953,-0.545877978515625
7.27908003670183,0.28730419921875,10.0269165527344,-0.550666381835937
7.28181832278039,0.339976635742188,10.036493359375,-0.545877978515625
7.28455660885894,0.28730419921875,10.0077629394531,-0.588973608398437
7.2872948949375,0.311246215820312,10.0652237792969,-0.47884033203125
7.29003319853993,0.36391865234375,10.0508585693359,-0.550666381835937
7.29277150214236,0.330399829101562,10.0652237792969,-0.521935961914062
7.29550980574479,0.32561142578125,10.0700121826172,-0.44053310546875
7.2983154700243,0.387860668945312,10.0987426025391,-0.435744702148437
7.30112113430381,0.316034619140625,10.0939541992188,-0.392649072265625
7.30392679858332,0.311246215820312,10.0843773925781,-0.339976635742188
7.32212302031724,-0.0335188232421875,10.0460701660156,-0.239420166015625
7.34031924205117,-0.0047884033203125,10.0317049560547,-0.316034619140625
7.3585154637851,-0.0335188232421875,10.0556469726563,-0.320823022460937
7.36108229867821,-0.0622492431640625,10.0556469726563,-0.316034619140625
7.36364913357133,-0.05746083984375,10.0029745361328,-0.311246215820312
7.36621596846445,-0.0909796630859375,10.0556469726563,-0.28730419921875
7.36878471150644,-0.105344873046875,10.0221281494141,-0.359130249023437
7.37135345454844,-0.110133276367187,10.0269165527344,-0.292092602539062
7.37392219759043,-0.09576806640625,10.0317049560547,-0.354341845703125
7.37649336219546,-0.0383072265625,10.0412817626953,-0.296881005859375
7.37906452680049,-0.047884033203125,10.036493359375,-0.28730419921875
7.38163569140552,-0.01915361328125,10.0221281494141,-0.330399829101562
7.38418983540509,-0.047884033203125,10.0221281494141,-0.373495458984375
7.38674397940465,-0.0430956298828125,9.99339772949219,-0.40222587890625
7.38929812340421,0.009576806640625,10.0029745361328,-0.373495458984375
7.39189406469111,-0.028730419921875,10.0029745361328,-0.45968671875
7.394490005978,0.0143652099609375,9.97424411621094,-0.430956298828125
7.3970859472649,0.01915361328125,9.96945571289062,-0.464475122070312
7.39966548111906,0.0335188232421875,9.97424411621094,-0.541089575195312
7.40224501497323,0.067037646484375,9.9981861328125,-0.531512768554687
7.40482454882739,0.028730419921875,10.0317049560547,-0.545877978515625
7.40739838216073,0.047884033203125,9.9981861328125,-0.521935961914062
7.40997221549406,0.067037646484375,9.98860932617187,-0.579396801757812
7.41254604882739,0.0909796630859375,9.99339772949219,-0.521935961914062
7.41511751009042,0.1149216796875,9.98382092285156,-0.51714755859375
7.41768897135345,0.105344873046875,9.95987890625,-0.51714755859375
7.42026043261647,0.124498486328125,10.0029745361328,-0.521935961914062
7.42283083593679,0.13407529296875,9.95987890625,-0.560243188476563
7.4254012392571,0.186747729492187,9.94551369628906,-0.603338818359375
7.42797164257742,0.1915361328125,9.9981861328125,-0.675164868164063
7.43070593098888,0.186747729492187,10.0029745361328,-0.699106884765625
7.43344021940034,0.239420166015625,9.97424411621094,-0.742202514648437
7.4361745078118,0.253785375976562,9.91678327636719,-0.828393774414062
7.43890937380572,0.301669409179687,9.93593688964844,-0.852335791015625
7.44164423979965,0.32561142578125,9.94072529296875,-0.837970581054687
7.44437910579357,0.354341845703125,9.89284125976562,-0.93852705078125
7.44711425802882,0.335188232421875,9.87847604980469,-0.78529814453125
7.44984941026407,0.373495458984375,9.89284125976562,-0.761356127929687
7.45258456249933,0.378283862304687,9.97903251953125,-0.842758984375
7.4552474543179,0.40222587890625,9.9215716796875,-0.847547387695312
7.45791034613647,0.373495458984375,9.93593688964844,-0.74699091796875
7.46057323795505,0.416591088867187,9.93114848632812,-0.8810662109375
7.46323546061129,0.392649072265625,9.98382092285156,-0.866701000976562
7.46589768326754,0.378283862304687,10.0029745361328,-0.833182177734375
7.46855990592378,0.397437475585937,10.0317049560547,-0.962469067382812
7.47121628808524,0.36391865234375,10.0556469726563,-0.905008227539062
7.47387267024671,0.354341845703125,10.0269165527344,-0.995987890625
7.47652905240817,0.339976635742188,10.0508585693359,-0.895431420898437
7.48448822330662,0.339976635742188,10.0987426025391,-0.933738647460937
7.49244739420507,0.320823022460937,10.1274730224609,-0.818816967773437
7.50040656510352,0.349553442382812,10.1322614257812,-0.8810662109375
7.50836020518599,0.387860668945312,10.0029745361328,-0.694318481445312
7.51631384526845,0.373495458984375,9.99339772949219,-0.723048901367187
7.52426748535092,0.387860668945312,9.97903251953125,-0.660799658203125
7.52677289702626,0.335188232421875,9.94551369628906,-0.656011254882812
7.52927830870161,0.3447650390625,9.94551369628906,-0.598550415039062
7.53178372037695,0.335188232421875,9.92636008300781,-0.603338818359375
7.53435988362565,0.320823022460937,9.87368764648437,-0.560243188476563
