timestamp,accel_x (m/s2),accel_y (m/s2),accel_z (m/s2)
0.0026985725911454,-0.464475122070312,9.46667336425781,0.1149216796875
0.0053971451822908,0.0430956298828125,10.1370498291016,-0.627280834960937
0.00809571777343621,0.047884033203125,10.1370498291016,-0.598550415039062
0.0134958006727407,0.0239420166015625,10.1178962158203,-0.636857641601562
0.0188958835720451,0.067037646484375,10.1370498291016,-0.67037646484375
0.0242959664713496,0.0526724365234375,10.1322614257812,-0.684741674804688
0.0296980297308972,0.076614453125,10.1322614257812,-0.699106884765625
0.0351000929904449,0.0526724365234375,10.1514150390625,-0.6512228515625
0.0405021562499925,0.067037646484375,10.1609918457031,-0.612915625
0.0459810233289843,0.0383072265625,10.1274730224609,-0.67037646484375
0.0514598904079762,0.0383072265625,10.1418382324219,-0.679953271484375
0.056938757486968,0.028730419921875,10.1322614257812,-0.665588061523437
0.0624213261718628,-0.009576806640625,10.1131078125,-0.679953271484375
0.0679038948567576,-0.0239420166015625,10.1083194091797,-0.627280834960937
0.0733864635416523,0.0143652099609375,10.1178962158203,-0.67037646484375
0.0788716476779356,-0.0047884033203125,10.0939541992188,-0.603338818359375
0.0843568318142189,-0.0143652099609375,10.0987426025391,-0.598550415039062
0.0898420159505022,0.01915361328125,10.1083194091797,-0.55545478515625
0.0953291580945977,-0.05746083984375,10.0843773925781,-0.507570751953125
0.100816300238693,-0.047884033203125,10.1178962158203,-0.512359155273437
0.106303442382789,-0.067037646484375,10.0652237792969,-0.435744702148437
0.111791714843726,-0.0814028564453125,10.0508585693359,-0.569819995117188
0.117279987304663,-0.1149216796875,10.0604353759766,-0.44053310546875
0.1227682597656,-0.067037646484375,10.0029745361328,-0.445321508789062
0.128321081163169,-0.119710083007812,10.0221281494141,-0.464475122070312
0.133873902560739,-0.119710083007812,10.0173397460938,-0.469263525390625
0.139426723958309,-0.13407529296875,10.0173397460938,-0.416591088867187
0.144984006076363,-0.086191259765625,9.99339772949219,-0.426167895507812
0.150541288194418,-0.110133276367187,9.97424411621094,-0.430956298828125
0.156098570312473,-0.0909796630859375,9.96945571289062,-0.411802685546875
0.161659459635388,-0.119710083007812,9.96945571289062,-0.36391865234375
0.167220348958303,-0.105344873046875,9.96466730957031,-0.373495458984375
0.172781238281217,-0.1149216796875,10.0173397460938,-0.411802685546875
0.178344623806391,-0.110133276367187,9.97424411621094,-0.4213794921875
0.183908009331565,-0.086191259765625,9.96945571289062,-0.383072265625
0.189471394856739,-0.105344873046875,9.98382092285156,-0.387860668945312
0.195260180338508,-0.100556469726563,9.95509050292969,-0.359130249023437
0.201048965820277,-0.13407529296875,9.96945571289062,-0.4213794921875
0.206837751302047,-0.105344873046875,9.97424411621094,-0.397437475585937
0.212630328124961,-0.110133276367187,9.93114848632812,-0.426167895507812
0.218422904947876,-0.138863696289063,9.88805285644531,-0.392649072265625
0.224215481770791,-0.148440502929687,9.91199487304687,-0.373495458984375
0.230010488823742,-0.105344873046875,9.94072529296875,-0.359130249023437
0.235805495876692,-0.105344873046875,9.93593688964844,-0.373495458984375
0.241600502929643,-0.119710083007812,9.91678327636719,-0.435744702148437
0.247398853190058,-0.129286889648437,9.93114848632812,-0.359130249023437
0.253197203450474,-0.124498486328125,9.9981861328125,-0.3447650390625
0.258995553710889,-0.129286889648437,9.91678327636719,-0.36391865234375
0.264796561306374,-0.124498486328125,9.95030209960937,-0.3447650390625
0.270597568901858,-0.119710083007812,9.96945571289062,-0.373495458984375
0.276398576497343,-0.15322890625,9.9215716796875,-0.316034619140625
0.282202504340224,-0.143652099609375,9.90241806640625,-0.3447650390625
0.288006432183105,-0.162805712890625,9.93114848632812,-0.368707055664062
0.293810360025986,-0.15322890625,9.89762966308594,-0.277727392578125
0.299616211696993,-0.162805712890625,9.89284125976562,-0.301669409179687
0.305422063367999,-0.15322890625,9.89284125976562,-0.330399829101562
0.311227915039005,-0.17238251953125,9.86411083984375,-0.277727392578125
0.343359081678543,-0.24899697265625,9.883264453125,-0.177170922851562
0.37549024831808,-0.234631762695312,9.87847604980469,-0.196324536132812
0.407621414957617,-0.244208569335937,9.87368764648437,-0.119710083007812
0.413494667778797,-0.220266552734375,9.88805285644531,-0.1149216796875
0.419367920599977,-0.277727392578125,9.85932243652344,-0.162805712890625
0.425241173421156,-0.24899697265625,9.88805285644531,-0.181959326171875
0.431117010552233,-0.263362182617187,9.89284125976562,-0.201112939453125
0.436992847683309,-0.272938989257812,9.90720646972656,-0.205901342773437
0.442868684814385,-0.272938989257812,9.90241806640625,-0.177170922851562
0.448746169514905,-0.3064578125,9.89284125976562,-0.220266552734375
0.454623654215425,-0.282515795898438,9.92636008300781,-0.244208569335937
0.460501138915944,-0.301669409179687,9.93593688964844,-0.225054956054687
0.466379652804832,-0.263362182617187,9.94072529296875,-0.229843359375
0.47225816669372,-0.277727392578125,9.95987890625,-0.2681505859375
0.478136680582608,-0.229843359375,9.94551369628906,-0.239420166015625
0.484079996771844,-0.2681505859375,9.95509050292969,-0.24899697265625
0.490023312961081,-0.277727392578125,9.99339772949219,-0.253785375976562
0.495966629150317,-0.234631762695312,9.97424411621094,-0.272938989257812
0.501914278347364,-0.2681505859375,9.97424411621094,-0.282515795898438
0.507861927544411,-0.196324536132812,9.98860932617187,-0.296881005859375
0.513809576741458,-0.229843359375,9.98382092285156,-0.320823022460937
0.519760878716284,-0.258573779296875,10.0029745361328,-0.316034619140625
0.525712180691109,-0.201112939453125,9.98860932617187,-0.354341845703125
0.531663482665934,-0.201112939453125,10.0317049560547,-0.3447650390625
0.53761619653312,-0.220266552734375,10.0125513427734,-0.296881005859375
0.543568910400306,-0.215478149414062,10.036493359375,-0.316034619140625
0.549521624267491,-0.239420166015625,10.036493359375,-0.320823022460937
0.55547552802183,-0.181959326171875,10.0412817626953,-0.36391865234375
0.561429431776169,-0.205901342773437,10.0748005859375,-0.335188232421875
0.567383335530508,-0.196324536132812,10.0412817626953,-0.397437475585937
0.573406257188492,-0.167594116210937,10.0843773925781,-0.3064578125
0.579429178846477,-0.205901342773437,10.0460701660156,-0.3447650390625
0.585452100504462,-0.201112939453125,10.0604353759766,-0.335188232421875
0.591478525309149,-0.205901342773437,10.1083194091797,-0.368707055664062
0.597504950113837,-0.220266552734375,10.0604353759766,-0.330399829101562
0.603531374918525,-0.258573779296875,10.0843773925781,-0.320823022460937
0.609560575764879,-0.220266552734375,10.0891657958984,-0.272938989257812
0.615589776611233,-0.24899697265625,10.0460701660156,-0.296881005859375
0.621618977457587,-0.263362182617187,10.0891657958984,-0.316034619140625
0.627719837483627,-0.244208569335937,10.0700121826172,-0.387860668945312
0.633820697509667,-0.28730419921875,10.1035310058594,-0.330399829101562
0.639921557535708,-0.316034619140625,10.1083194091797,-0.407014282226562
0.646024901177199,-0.301669409179687,10.0891657958984,-0.32561142578125
0.652128244818691,-0.3064578125,10.0891657958984,-0.354341845703125
0.658231588460183,-0.301669409179687,10.0843773925781,-0.368707055664062
0.664336491454973,-0.3064578125,10.0843773925781,-0.368707055664062
0.670441394449763,-0.296881005859375,10.0700121826172,-0.40222587890625
0.676546297444553,-0.316034619140625,10.1322614257812,-0.354341845703125
0.682652813178059,-0.296881005859375,10.0843773925781,-0.40222587890625
0.688759328911566,-0.311246215820312,10.1131078125,-0.40222587890625
0.694865844645072,-0.3064578125,10.0987426025391,-0.368707055664062
0.701046648898545,-0.277727392578125,10.1131078125,-0.454898315429687
0.707227453152017,-0.311246215820312,10.1035310058594,-0.383072265625
0.71340825740549,-0.258573779296875,10.0987426025391,-0.430956298828125
0.719591583794378,-0.277727392578125,10.1226846191406,-0.354341845703125
0.725774910183266,-0.282515795898438,10.0939541992188,-0.392649072265625
0.731958236572154,-0.244208569335937,10.0652237792969,-0.40222587890625
0.738143824896807,-0.296881005859375,10.0795889892578,-0.397437475585937
0.74432941322146,-0.2681505859375,10.1083194091797,-0.40222587890625
0.750515001546113,-0.234631762695312,10.0604353759766,-0.426167895507812
0.756702357231876,-0.263362182617187,10.1035310058594,-0.469263525390625
0.762889712917639,-0.292092602539062,10.0700121826172,-0.45968671875
0.769077068603401,-0.253785375976562,10.0700121826172,-0.430956298828125
0.77526596421972,-0.225054956054687,10.0843773925781,-0.445321508789062
0.781454859836039,-0.201112939453125,10.0652237792969,-0.426167895507812
0.787643755452358,-0.244208569335937,10.0412817626953,-0.40222587890625
0.793833698594717,-0.225054956054687,10.0317049560547,-0.354341845703125
0.800023641737077,-0.239420166015625,9.96945571289062,-0.416591088867187
0.806213584879437,-0.229843359375,9.95987890625,-0.411802685546875
0.812404502739679,-0.239420166015625,9.93593688964844,-0.335188232421875
0.818595420599922,-0.272938989257812,9.93114848632812,-0.392649072265625
0.824786338460164,-0.253785375976562,9.94072529296875,-0.320823022460937
0.834153249240328,-0.239420166015625,9.92636008300781,-0.3447650390625
0.843520160020491,-0.215478149414062,9.92636008300781,-0.383072265625
0.852887070800655,-0.201112939453125,9.96945571289062,-0.407014282226562
0.859144117675655,-0.177170922851562,9.95030209960937,-0.40222587890625
0.865401164550654,-0.201112939453125,9.95030209960937,-0.387860668945312
0.871658211425654,-0.21068974609375,9.96466730957031,-0.387860668945312
0.877916483778084,-0.158017309570312,9.94551369628906,-0.397437475585937
0.884174756130515,-0.181959326171875,9.91678327636719,-0.397437475585937
0.890433028482946,-0.143652099609375,9.9215716796875,-0.411802685546875
0.896692318087979,-0.148440502929687,9.94072529296875,-0.40222587890625
0.902951607693012,-0.181959326171875,9.93593688964844,-0.392649072265625
0.909210897298045,-0.148440502929687,9.98860932617187,-0.339976635742188
0.915549603027211,-0.158017309570312,9.93114848632812,-0.383072265625
0.921888308756377,-0.119710083007812,9.95987890625,-0.36391865234375
0.928227014485543,-0.105344873046875,10.0125513427734,-0.373495458984375
0.934568672797174,-0.100556469726563,10.0460701660156,-0.387860668945312
0.940910331108806,-0.086191259765625,10.0221281494141,-0.407014282226562
0.947251989420437,-0.076614453125,10.0412817626953,-0.383072265625
0.953595647189533,-0.0814028564453125,10.0748005859375,-0.339976635742188
0.959939304958629,-0.0335188232421875,10.0317049560547,-0.378283862304687
0.966282962727725,-0.0718260498046875,10.0748005859375,-0.368707055664062
0.972628238335363,-0.009576806640625,10.0317049560547,-0.3064578125
0.978973513943001,-0.0526724365234375,10.036493359375,-0.359130249023437
0.985318789550639,-0.0239420166015625,10.0173397460938,-0.3447650390625
0.991666023057583,-0.076614453125,10.0125513427734,-0.416591088867187
0.998013256564526,-0.0526724365234375,10.0173397460938,-0.454898315429687
1.00436049007147,-0.0335188232421875,10.0412817626953,-0.378283862304687
1.01070921544039,-0.047884033203125,9.96945571289062,-0.416591088867187
1.01705794080932,-0.0814028564453125,9.95030209960937,-0.397437475585937
1.02340666617824,-0.009576806640625,9.96466730957031,-0.483628735351562
1.02982193494994,-0.076614453125,9.92636008300781,-0.430956298828125
1.03623720372164,-0.086191259765625,9.90241806640625,-0.383072265625
1.04265247249334,-0.0909796630859375,9.86889924316406,-0.378283862304687
1.04907411452893,-0.067037646484375,9.84016882324219,-0.359130249023437
1.05549575656453,-0.1149216796875,9.8449572265625,-0.368707055664062
1.06191739860012,-0.0814028564453125,9.84974562988281,-0.311246215820312
1.0683415577798,-0.086191259765625,9.83059201660156,-0.349553442382812
1.07476571695949,-0.1149216796875,9.84974562988281,-0.3447650390625
1.08118987613918,-0.124498486328125,9.8449572265625,-0.215478149414062
1.08761695100897,-0.124498486328125,9.89284125976562,-0.311246215820312
1.09404402587876,-0.100556469726563,9.86411083984375,-0.253785375976562
1.10047110074855,-0.13407529296875,9.87847604980469,-0.2681505859375
1.10690011105671,-0.143652099609375,9.85453403320312,-0.253785375976562
1.11332912136487,-0.067037646484375,9.92636008300781,-0.24899697265625
1.11975813167302,-0.086191259765625,9.9215716796875,-0.24899697265625
1.12624920068344,-0.105344873046875,9.93593688964844,-0.253785375976562
1.13274026969385,-0.110133276367187,9.89762966308594,-0.225054956054687
1.13923133870427,-0.0622492431640625,9.94072529296875,-0.205901342773437
1.14572495838743,-0.076614453125,9.91199487304687,-0.24899697265625
1.15221857807059,-0.0622492431640625,9.89762966308594,-0.272938989257812
1.15871219775375,-0.0526724365234375,9.96466730957031,-0.339976635742188
1.16520752772337,-0.0430956298828125,9.95509050292969,-0.339976635742188
1.17170285769298,-0.0526724365234375,9.96466730957031,-0.383072265625
1.1781981876626,-0.028730419921875,9.95509050292969,-0.339976635742188
1.18469529920774,-0.0239420166015625,9.91678327636719,-0.45968671875
1.19119241075288,-0.0239420166015625,9.93114848632812,-0.464475122070312
1.19768952229801,-0.028730419921875,9.95030209960937,-0.411802685546875
1.20419198942041,-0.0383072265625,9.97903251953125,-0.493205541992187
1.2106944565428,-0.0335188232421875,9.95030209960937,-0.507570751953125
1.2171969236652,-0.0143652099609375,9.93593688964844,-0.521935961914062
1.22384368961572,0.028730419921875,9.94551369628906,-0.51714755859375
1.23049045556624,0.01915361328125,9.93593688964844,-0.493205541992187
1.23713722151676,0.0047884033203125,9.97903251953125,-0.474051928710937
1.24378620480669,0.0239420166015625,9.95987890625,-0.454898315429687
1.25043518809662,0.0143652099609375,9.96945571289062,-0.507570751953125
1.25708417138655,0.0,9.98860932617187,-0.47884033203125
1.26381014165565,0.047884033203125,9.97903251953125,-0.40222587890625
1.27053611192475,0.01915361328125,9.97424411621094,-0.450109912109375
1.27726208219384,0.0526724365234375,9.98860932617187,-0.392649072265625
1.28399131287961,0.009576806640625,10.0125513427734,-0.397437475585937
1.29072054356537,0.01915361328125,10.0173397460938,-0.40222587890625
1.29744977425113,0.0239420166015625,9.98860932617187,-0.3447650390625
1.30418055311398,0.0,9.99339772949219,-0.36391865234375
1.31091133197683,-0.01915361328125,10.0029745361328,-0.411802685546875
1.31764211083967,-0.0047884033203125,10.0748005859375,-0.335188232421875
1.32444785704193,0.01915361328125,10.036493359375,-0.387860668945312
1.33125360324418,0.009576806640625,10.0460701660156,-0.416591088867187
1.33805934944644,0.0143652099609375,10.1035310058594,-0.3447650390625
1.34487265630408,0.0383072265625,10.0412817626953,-0.316034619140625
1.35168596316171,-0.0143652099609375,10.0939541992188,-0.316034619140625
1.35849927001935,0.0143652099609375,10.0795889892578,-0.3064578125
1.37553767475025,-0.086191259765625,10.0939541992188,-0.28730419921875
1.39257607948115,-0.028730419921875,10.1274730224609,-0.387860668945312
1.40961448421205,-0.076614453125,10.0987426025391,-0.383072265625
1.41643224875198,-0.076614453125,10.1035310058594,-0.392649072265625
1.42325001329191,-0.0383072265625,10.1083194091797,-0.36391865234375
1.43006777783184,-0.067037646484375,10.0700121826172,-0.407014282226562
1.44711478664803,-0.129286889648437,10.0412817626953,-0.541089575195312
1.46416179546422,-0.158017309570312,10.0460701660156,-0.63206923828125
1.4812088042804,-0.119710083007812,10.0269165527344,-0.598550415039062
1.48803000794794,-0.119710083007812,10.0412817626953,-0.531512768554687
1.49485121161547,-0.15322890625,10.0269165527344,-0.617704028320312
1.50167241528301,-0.158017309570312,9.9981861328125,-0.603338818359375
1.50849538338197,-0.15322890625,10.0652237792969,-0.612915625
1.51531835148092,-0.13407529296875,9.98860932617187,-0.617704028320312
1.52214131957988,-0.13407529296875,10.0700121826172,-0.598550415039062
1.53587545906556,-0.15322890625,9.89762966308594,-0.40222587890625
1.54960959855124,-0.205901342773437,9.91678327636719,-0.392649072265625
1.56334373803692,-0.220266552734375,9.82580361328125,-0.339976635742188
1.57022781724699,-0.220266552734375,9.89762966308594,-0.335188232421875
1.57711189645706,-0.24899697265625,9.9215716796875,-0.316034619140625
1.58399597566713,-0.229843359375,9.87368764648437,-0.330399829101562
1.59088215752476,-0.239420166015625,9.883264453125,-0.311246215820312
1.5977683393824,-0.2681505859375,9.91199487304687,-0.292092602539062
1.60465452124004,-0.229843359375,9.90720646972656,-0.277727392578125
1.61154229695618,-0.239420166015625,9.93114848632812,-0.383072265625
1.61843007267233,-0.196324536132812,9.883264453125,-0.316034619140625
1.62531784838847,-0.24899697265625,9.87847604980469,-0.292092602539062
1.6322101988659,-0.220266552734375,9.90241806640625,-0.277727392578125
1.63910254934333,-0.263362182617187,9.94551369628906,-0.272938989257812
1.64599489982076,-0.220266552734375,9.90241806640625,-0.282515795898438
1.65295486010722,-0.234631762695312,9.90720646972656,-0.277727392578125
1.65991482039368,-0.215478149414062,9.9215716796875,-0.253785375976562
1.66687478068014,-0.220266552734375,9.93593688964844,-0.335188232421875
1.67383704782423,-0.253785375976562,9.91199487304687,-0.282515795898438
1.68079931496833,-0.215478149414062,9.93593688964844,-0.3064578125
1.68776158211243,-0.21068974609375,9.90720646972656,-0.258573779296875
1.69472551841885,-0.225054956054687,9.91678327636719,-0.32561142578125
1.70168945472527,-0.220266552734375,9.93593688964844,-0.301669409179687
1.70865339103169,-0.21068974609375,9.94072529296875,-0.3447650390625
1.71561890915235,-0.277727392578125,9.95509050292969,-0.258573779296875
1.72258442727301,-0.205901342773437,9.98382092285156,-0.339976635742188
1.72954994539367,-0.225054956054687,9.93593688964844,-0.330399829101562
1.73651710858811,-0.239420166015625,9.96945571289062,-0.368707055664062
1.74348427178255,-0.215478149414062,9.95509050292969,-0.373495458984375
1.750451434977,-0.263362182617187,9.96466730957031,-0.320823022460937
1.75748874346224,-0.272938989257812,9.96466730957031,-0.354341845703125
1.76452605194748,-0.277727392578125,9.96466730957031,-0.3447650390625
1.77156336043273,-0.24899697265625,9.93593688964844,-0.32561142578125
1.77868045353168,-0.263362182617187,9.93593688964844,-0.407014282226562
1.78579754663064,-0.272938989257812,9.93114848632812,-0.349553442382812
1.7929146397296,-0.239420166015625,9.93114848632812,-0.36391865234375
1.80003513170008,-0.263362182617187,9.9215716796875,-0.411802685546875
1.80715562367057,-0.258573779296875,9.91678327636719,-0.36391865234375
1.81427611564105,-0.258573779296875,9.94072529296875,-0.311246215820312
1.8213982835013,-0.239420166015625,9.90241806640625,-0.44053310546875
1.82852045136154,-0.225054956054687,9.91199487304687,-0.392649072265625
1.83564261922178,-0.220266552734375,9.93114848632812,-0.40222587890625
1.84283901765928,-0.244208569335937,9.93593688964844,-0.349553442382812
1.85003541609678,-0.220266552734375,9.94551369628906,-0.373495458984375
1.85723181453428,-0.220266552734375,9.95987890625,-0.416591088867187
1.86443442217317,-0.225054956054687,9.95987890625,-0.378283862304687
1.87163702981206,-0.1915361328125,9.92636008300781,-0.411802685546875
1.87883963745095,-0.225054956054687,9.94072529296875,-0.359130249023437
1.88604549118359,-0.225054956054687,9.93593688964844,-0.359130249023437
1.89325134491622,-0.1915361328125,9.95987890625,-0.354341845703125
1.90045719864886,-0.205901342773437,9.95987890625,-0.40222587890625
1.90766462475563,-0.1915361328125,9.96945571289062,-0.40222587890625
1.9148720508624,-0.1915361328125,9.96466730957031,-0.435744702148437
1.92207947696917,-0.186747729492187,9.93593688964844,-0.378283862304687
1.93649653588844,-0.148440502929687,10.0412817626953,-0.545877978515625
1.95091359480771,-0.162805712890625,10.0460701660156,-0.40222587890625
1.96533065372698,-0.138863696289063,10.0412817626953,-0.450109912109375
1.97260255715579,-0.158017309570312,10.036493359375,-0.383072265625
1.97987446058461,-0.129286889648437,9.99339772949219,-0.469263525390625
1.98714636401343,-0.177170922851562,9.99339772949219,-0.45968671875
1.99442060945614,-0.167594116210937,10.0077629394531,-0.469263525390625
2.00169485489885,-0.167594116210937,10.036493359375,-0.483628735351562
2.00896910034156,-0.201112939453125,10.0460701660156,-0.44053310546875
2.02352049991838,-0.167594116210937,10.1226846191406,-0.641646044921875
2.0380718994952,-0.15322890625,10.1657802490234,-0.723048901367187
2.05262329907202,-0.177170922851562,10.1562034423828,-0.718260498046875
2.05990098993573,-0.177170922851562,10.1609918457031,-0.636857641601562
2.06717868079945,-0.21068974609375,10.1083194091797,-0.656011254882812
2.07445637166316,-0.196324536132812,10.0891657958984,-0.541089575195312
2.08180732055639,-0.201112939453125,10.036493359375,-0.545877978515625
2.08915826944962,-0.234631762695312,9.96466730957031,-0.536301171875
2.09650921834285,-0.21068974609375,9.99339772949219,-0.469263525390625
2.10386253887236,-0.2681505859375,9.96945571289062,-0.44053310546875
2.11121585940187,-0.253785375976562,9.94551369628906,-0.426167895507812
2.11856917993138,-0.215478149414062,9.95030209960937,-0.450109912109375
2.12592410560413,-0.220266552734375,9.9215716796875,-0.464475122070312
2.13327903127687,-0.225054956054687,9.90241806640625,-0.387860668945312
2.14063395694961,-0.1915361328125,9.9215716796875,-0.4213794921875
2.14799045619007,-0.21068974609375,9.91678327636719,-0.454898315429687
2.15534695543052,-0.215478149414062,9.90720646972656,-0.483628735351562
2.16270345467097,-0.24899697265625,9.95030209960937,-0.40222587890625
2.17006163869875,-0.220266552734375,9.89762966308594,-0.488417138671875
2.17741982272652,-0.220266552734375,9.91199487304687,-0.359130249023437
2.1847780067543,-0.201112939453125,9.90720646972656,-0.411802685546875
2.19213768633329,-0.220266552734375,9.91678327636719,-0.3447650390625
2.19949736591228,-0.215478149414062,9.88805285644531,-0.378283862304687
2.20685704549128,-0.225054956054687,9.95030209960937,-0.301669409179687
2.21421819468832,-0.177170922851562,9.94551369628906,-0.253785375976562
2.22157934388537,-0.215478149414062,9.93593688964844,-0.258573779296875
2.22894049308242,-0.196324536132812,9.97903251953125,-0.292092602539062
2.24006760072131,-0.220266552734375,9.99339772949219,-0.282515795898438
2.2511947083602,-0.205901342773437,9.98382092285156,-0.296881005859375
2.26232181599909,-0.186747729492187,9.98860932617187,-0.359130249023437
2.26975360072131,-0.17238251953125,10.0125513427734,-0.311246215820312
2.27718538544353,-0.201112939453125,10.0317049560547,-0.373495458984375
2.28461717016575,-0.181959326171875,10.0269165527344,-0.316034619140625
2.29205058737495,-0.167594116210937,9.9981861328125,-0.320823022460937
2.29948400458415,-0.229843359375,10.0077629394531,-0.354341845703125
2.30691742179336,-0.225054956054687,9.97903251953125,-0.378283862304687
2.31435235875082,-0.234631762695312,9.99339772949219,-0.349553442382812
2.32178729570828,-0.263362182617187,9.98382092285156,-0.36391865234375
2.32922223266575,-0.220266552734375,9.94072529296875,-0.359130249023437
2.33665864000082,-0.253785375976562,9.95509050292969,-0.368707055664062
2.34409504733588,-0.272938989257812,9.94551369628906,-0.378283862304687
2.35153145467095,-0.225054956054687,9.95509050292969,-0.40222587890625
2.35903837535237,-0.24899697265625,9.97903251953125,-0.450109912109375
2.3665452960338,-0.263362182617187,9.95987890625,-0.450109912109375
2.37405221671522,-0.239420166015625,9.96945571289062,-0.387860668945312
2.3815625320364,-0.296881005859375,9.89284125976562,-0.4213794921875
2.38907284735758,-0.234631762695312,9.92636008300781,-0.44053310546875
2.39658316267876,-0.253785375976562,9.94551369628906,-0.474051928710937
2.40409530829508,-0.244208569335937,9.95030209960937,-0.454898315429687
2.4116074539114,-0.244208569335937,9.93114848632812,-0.45968671875
2.41911959952772,-0.263362182617187,9.9215716796875,-0.426167895507812
2.42663326380723,-0.253785375976562,9.94072529296875,-0.450109912109375
2.43414692808675,-0.239420166015625,9.93593688964844,-0.430956298828125
2.44166059236626,-0.234631762695312,9.96466730957031,-0.450109912109375
2.44917584247477,-0.229843359375,9.99339772949219,-0.469263525390625
2.45669109258327,-0.225054956054687,9.95509050292969,-0.521935961914062
2.46420634269178,-0.205901342773437,9.94551369628906,-0.493205541992187
2.4717922851831,-0.215478149414062,9.95987890625,-0.411802685546875
2.47937822767442,-0.229843359375,9.97903251953125,-0.397437475585937
2.48696417016574,-0.186747729492187,9.95030209960937,-0.373495458984375
2.49455538001817,-0.234631762695312,9.96466730957031,-0.45968671875
2.5021465898706,-0.205901342773437,9.9981861328125,-0.368707055664062
2.50973779972303,-0.1915361328125,9.96945571289062,-0.40222587890625
2.51200172865098,-0.201112939453125,9.95987890625,-0.359130249023437
2.51426565757894,-0.234631762695312,9.96945571289062,-0.339976635742188
2.51652958650689,-0.239420166015625,9.94072529296875,-0.320823022460937
2.51879339580593,-0.225054956054687,9.91199487304687,-0.378283862304687
2.52105720510498,-0.196324536132812,9.93593688964844,-0.253785375976562
2.52332101440402,-0.258573779296875,9.90720646972656,-0.3064578125
2.52554695798041,-0.24899697265625,9.94072529296875,-0.373495458984375
2.5277729015568,-0.244208569335937,9.90720646972656,-0.2681505859375
2.52999884513319,-0.301669409179687,9.90241806640625,-0.277727392578125
2.53225931909152,-0.3447650390625,9.86889924316406,-0.292092602539062
2.53451979304986,-0.28730419921875,9.85932243652344,-0.225054956054687
2.53678026700819,-0.301669409179687,9.87847604980469,-0.330399829101562
2.53903981963406,-0.3064578125,9.82580361328125,-0.239420166015625
2.54129937225993,-0.335188232421875,9.79228479003906,-0.282515795898438
2.5435589248858,-0.32561142578125,9.79707319335937,-0.239420166015625
2.54581770315186,-0.292092602539062,9.82580361328125,-0.282515795898438
2.54807648141791,-0.330399829101562,9.83059201660156,-0.316034619140625
2.55033525968397,-0.296881005859375,9.85932243652344,-0.28730419921875
2.55274545949951,-0.354341845703125,9.86411083984375,-0.354341845703125
2.55515565931505,-0.296881005859375,9.86411083984375,-0.378283862304687
2.55756585913059,-0.277727392578125,9.83538041992187,-0.359130249023437
2.56112086865207,-0.277727392578125,9.86889924316406,-0.3447650390625
2.56467587817355,-0.301669409179687,9.89762966308594,-0.359130249023437
2.56823088769504,-0.258573779296875,9.89762966308594,-0.301669409179687
2.57057728320285,-0.277727392578125,9.90720646972656,-0.339976635742188
2.57292367871066,-0.244208569335937,9.95030209960937,-0.330399829101562
2.57527007421847,-0.229843359375,9.90241806640625,-0.339976635742188
2.57761445540337,-0.21068974609375,9.94072529296875,-0.316034619140625
2.57995883658827,-0.21068974609375,9.97903251953125,-0.339976635742188
2.58230321777317,-0.21068974609375,9.94551369628906,-0.387860668945312
2.58676388579617,-0.1915361328125,10.0508585693359,-0.411802685546875
2.59122455381918,-0.143652099609375,10.0508585693359,-0.430956298828125
2.59568522184218,-0.143652099609375,10.036493359375,-0.387860668945312
2.59780179768854,-0.158017309570312,10.0412817626953,-0.397437475585937
2.59991837353489,-0.13407529296875,10.0173397460938,-0.44053310546875
2.60203494938125,-0.129286889648437,10.0412817626953,-0.488417138671875
2.60415065196371,-0.158017309570312,10.0221281494141,-0.44053310546875
2.60626635454618,-0.148440502929687,10.0317049560547,-0.40222587890625
2.60838205712864,-0.119710083007812,10.036493359375,-0.368707055664062
2.61804942584609,-0.215478149414062,10.1178962158203,-0.507570751953125
2.62771679456354,-0.225054956054687,10.1322614257812,-0.483628735351562
2.63738416328099,-0.196324536132812,10.1514150390625,-0.521935961914062
2.63954694960369,-0.234631762695312,10.1035310058594,-0.565031591796875
2.64170973592639,-0.234631762695312,10.1226846191406,-0.531512768554687
2.64387252224909,-0.15322890625,10.1514150390625,-0.569819995117188
2.64602692688776,-0.215478149414062,10.1274730224609,-0.531512768554687
2.64818133152643,-0.21068974609375,10.1609918457031,-0.51714755859375
2.6503357361651,-0.167594116210937,10.1035310058594,-0.507570751953125
2.65247951053034,-0.15322890625,10.1035310058594,-0.45968671875
2.65462328489557,-0.177170922851562,10.0652237792969,-0.502782348632812
2.6567670592608,-0.143652099609375,10.0652237792969,-0.4979939453125
2.65890011567899,-0.148440502929687,10.0652237792969,-0.502782348632812
2.66103317209717,-0.181959326171875,10.1322614257812,-0.435744702148437
2.66316622851536,-0.1915361328125,10.1131078125,-0.445321508789062
2.66535285134522,-0.138863696289063,10.0652237792969,-0.464475122070312
2.66753947417508,-0.138863696289063,10.0460701660156,-0.488417138671875
2.66972609700494,-0.129286889648437,10.0556469726563,-0.51714755859375
2.67190884516032,-0.15322890625,10.0412817626953,-0.430956298828125
2.6740915933157,-0.138863696289063,10.0412817626953,-0.392649072265625
2.67627434147109,-0.110133276367187,10.0412817626953,-0.469263525390625
2.6784561589624,-0.105344873046875,10.036493359375,-0.430956298828125
2.68063797645372,-0.09576806640625,10.0317049560547,-0.445321508789062
2.68281979394504,-0.100556469726563,10.0460701660156,-0.454898315429687
2.6850015697697,-0.100556469726563,10.0652237792969,-0.483628735351562
2.68718334559435,-0.067037646484375,10.0604353759766,-0.397437475585937
2.689365121419,-0.028730419921875,10.0556469726563,-0.483628735351562
2.69155002495633,-0.0430956298828125,10.0891657958984,-0.507570751953125
2.69373492849365,-0.047884033203125,10.0891657958984,-0.464475122070312
2.69591983203098,-0.028730419921875,10.0700121826172,-0.47884033203125
2.69810835633654,-0.0239420166015625,10.0748005859375,-0.416591088867187
2.70029688064209,-0.047884033203125,10.0652237792969,-0.488417138671875
2.70248540494764,-0.01915361328125,10.0556469726563,-0.474051928710937
2.70467185069417,-0.0143652099609375,10.0173397460938,-0.474051928710937
2.7068582964407,-0.047884033203125,10.036493359375,-0.435744702148437
2.70904474218723,-0.0239420166015625,10.036493359375,-0.407014282226562
2.71122908430963,-0.0622492431640625,10.0125513427734,-0.407014282226562
2.71341342643202,-0.0622492431640625,10.0269165527344,-0.407014282226562
2.71559776855442,-0.0718260498046875,10.0173397460938,-0.339976635742188
2.71793390668376,-0.0814028564453125,10.0173397460938,-0.339976635742188
2.7202700448131,-0.0909796630859375,9.98382092285156,-0.320823022460937
2.72260618294244,-0.0718260498046875,9.99339772949219,-0.3447650390625
2.72494602929661,-0.086191259765625,9.98382092285156,-0.244208569335937
2.72728587565078,-0.0909796630859375,9.98860932617187,-0.272938989257812
2.72962572200495,-0.0909796630859375,10.0029745361328,-0.282515795898438
2.73189823589384,-0.105344873046875,9.96466730957031,-0.229843359375
2.73417074978273,-0.124498486328125,9.91199487304687,-0.263362182617187
2.73644326367162,-0.119710083007812,9.97424411621094,-0.244208569335937
2.73871388856311,-0.158017309570312,9.96466730957031,-0.3064578125
2.7409845134546,-0.177170922851562,9.93593688964844,-0.272938989257812
2.74325513834609,-0.148440502929687,9.97903251953125,-0.28730419921875
2.74552481108915,-0.196324536132812,9.93593688964844,-0.282515795898438
2.7477944838322,-0.201112939453125,9.93593688964844,-0.244208569335937
2.75006415657526,-0.186747729492187,9.93114848632812,-0.258573779296875
2.75226400390599,-0.15322890625,9.94072529296875,-0.229843359375
2.75446385123671,-0.124498486328125,9.9215716796875,-0.239420166015625
2.75666369856744,-0.177170922851562,9.93114848632812,-0.220266552734375
2.75886257345894,-0.177170922851562,9.94551369628906,-0.292092602539062
2.76106144835043,-0.201112939453125,9.95509050292969,-0.244208569335937
2.76326032324192,-0.215478149414062,9.96466730957031,-0.311246215820312
2.770983094021,-0.301669409179687,9.97424411621094,-0.17238251953125
2.77870586480008,-0.301669409179687,9.92636008300781,-0.186747729492187
2.78642863557916,-0.316034619140625,9.90720646972656,-0.105344873046875
2.78861890142118,-0.272938989257812,9.9215716796875,-0.129286889648437
2.79080916726319,-0.28730419921875,9.93593688964844,-0.1149216796875
2.79299943310521,-0.3447650390625,9.90720646972656,-0.162805712890625
2.79519018603489,-0.311246215820312,9.9215716796875,-0.167594116210937
2.79738093896458,-0.339976635742188,9.90241806640625,-0.138863696289063
2.79957169189426,-0.3447650390625,9.94551369628906,-0.186747729492187
2.80176314816597,-0.301669409179687,9.90720646972656,-0.13407529296875
2.80395460443767,-0.368707055664062,9.91678327636719,-0.100556469726563
2.80614606070937,-0.359130249023437,9.85932243652344,-0.186747729492187
2.80833812158176,-0.378283862304687,9.91678327636719,-0.220266552734375
2.81053018245416,-0.378283862304687,9.86411083984375,-0.21068974609375
2.81272224332655,-0.378283862304687,9.84016882324219,-0.263362182617187
2.8149761994355,-0.339976635742188,9.89762966308594,-0.205901342773437
2.81723015554444,-0.378283862304687,9.83059201660156,-0.143652099609375
2.81948411165338,-0.373495458984375,9.86889924316406,-0.17238251953125
2.82172372892226,-0.373495458984375,9.88805285644531,-0.244208569335937
2.82396334619114,-0.368707055664062,9.8449572265625,-0.244208569335937
2.82620296346002,-0.40222587890625,9.87368764648437,-0.181959326171875
2.82839577606853,-0.354341845703125,9.94072529296875,-0.205901342773437
2.83058858867704,-0.378283862304687,9.93593688964844,-0.258573779296875
2.83278140128554,-0.378283862304687,9.98382092285156,-0.234631762695312
2.83504643546523,-0.373495458984375,9.96466730957031,-0.2681505859375
2.83731146964492,-0.392649072265625,9.96945571289062,-0.3447650390625
2.8395765038246,-0.411802685546875,10.0077629394531,-0.316034619140625
2.84191871877686,-0.387860668945312,10.0269165527344,-0.3064578125
2.84426093372912,-0.383072265625,10.036493359375,-0.349553442382812
2.84660314868137,-0.407014282226562,10.0508585693359,-0.36391865234375
2.84894685918485,-0.40222587890625,10.036493359375,-0.311246215820312
2.85129056968832,-0.411802685546875,10.0795889892578,-0.316034619140625
2.85363428019179,-0.407014282226562,10.1083194091797,-0.339976635742188
2.85590020445394,-0.378283862304687,10.0652237792969,-0.3064578125
2.85816612871609,-0.411802685546875,10.0939541992188,-0.32561142578125
2.86043205297825,-0.411802685546875,10.0939541992188,-0.335188232421875
2.86276942841228,-0.411802685546875,10.0987426025391,-0.316034619140625
2.8651068038463,-0.411802685546875,10.1131078125,-0.292092602539062
2.86744417928033,-0.354341845703125,10.0700121826172,-0.311246215820312
2.8698577803003,-0.368707055664062,10.0891657958984,-0.349553442382812
2.87227138132027,-0.36391865234375,10.0843773925781,-0.349553442382812
2.87468498234023,-0.368707055664062,10.0604353759766,-0.359130249023437
2.87717417504857,-0.40222587890625,10.0843773925781,-0.330399829101562
2.8796633677569,-0.407014282226562,10.0795889892578,-0.311246215820312
2.88215256046524,-0.378283862304687,10.0556469726563,-0.316034619140625
2.89075893337648,-0.105344873046875,9.93114848632812,-0.296881005859375
2.89936530628772,-0.100556469726563,9.95509050292969,-0.339976635742188
2.90797167919895,-0.105344873046875,9.9215716796875,-0.378283862304687
2.91038851057916,-0.100556469726563,9.91678327636719,-0.426167895507812
2.91280534195937,-0.1149216796875,9.90241806640625,-0.430956298828125
2.91522217333958,-0.047884033203125,9.92636008300781,-0.430956298828125
2.91763991720893,-0.0526724365234375,9.93593688964844,-0.435744702148437
2.92005766107829,-0.086191259765625,9.86411083984375,-0.483628735351562
2.92247540494765,-0.05746083984375,9.91199487304687,-0.4213794921875
2.92489302034479,-0.067037646484375,9.93114848632812,-0.45968671875
2.92731063574192,-0.067037646484375,9.94551369628906,-0.512359155273437
2.92972825113906,-0.0526724365234375,9.93593688964844,-0.435744702148437
2.93329634068441,-0.086191259765625,9.91678327636719,-0.47884033203125
2.93686443022977,-0.047884033203125,9.93593688964844,-0.488417138671875
2.94043251977512,-0.124498486328125,9.89762966308594,-0.469263525390625
2.94750260148085,-0.124498486328125,9.97424411621094,-0.277727392578125
2.95457268318658,-0.110133276367187,9.95509050292969,-0.282515795898438
2.96164276489231,-0.110133276367187,9.94551369628906,-0.215478149414062
2.96960365456787,-0.0239420166015625,9.96466730957031,-0.234631762695312
2.97756454424343,-0.0526724365234375,9.9215716796875,-0.177170922851562
2.98552543391899,0.009576806640625,9.90720646972656,-0.220266552734375
2.98771415147541,-0.0143652099609375,9.90241806640625,-0.244208569335937
2.98990286903183,-0.0622492431640625,9.97903251953125,-0.220266552734375
2.99209158658826,0.0,9.96466730957031,-0.277727392578125
2.99427983322454,-0.067037646484375,9.95030209960937,-0.220266552734375
2.99646807986083,-0.086191259765625,9.95509050292969,-0.244208569335937
2.99865632649711,-0.0335188232421875,9.95030209960937,-0.24899697265625
3.00080974853487,-0.0239420166015625,9.98860932617187,-0.277727392578125
3.00296317057263,-0.0526724365234375,10.0125513427734,-0.258573779296875
3.0051165926104,-0.0335188232421875,10.0269165527344,-0.263362182617187
3.00723042328531,-0.0383072265625,9.96945571289062,-0.316034619140625
3.00934425396022,-0.0383072265625,9.96466730957031,-0.201112939453125
3.01145808463514,-0.0430956298828125,9.98860932617187,-0.292092602539062
3.01363558517767,-0.100556469726563,9.99339772949219,-0.296881005859375
3.01581308572021,-0.110133276367187,9.95509050292969,-0.258573779296875
3.01799058626274,-0.086191259765625,10.0077629394531,-0.277727392578125
3.02016893728271,-0.086191259765625,9.99339772949219,-0.239420166015625
3.02234728830267,-0.05746083984375,9.98382092285156,-0.2681505859375
3.02452563932264,-0.119710083007812,9.97903251953125,-0.320823022460937
3.02670451692681,-0.110133276367187,10.0317049560547,-0.272938989257812
3.02888339453097,-0.0909796630859375,10.036493359375,-0.320823022460937
3.03106227213514,-0.110133276367187,9.95509050292969,-0.301669409179687
3.03324122276448,-0.0909796630859375,9.98860932617187,-0.383072265625
3.03542017339382,-0.138863696289063,9.99339772949219,-0.3447650390625
3.03759912402316,-0.100556469726563,9.98382092285156,-0.32561142578125
3.03977901208468,-0.177170922851562,9.97424411621094,-0.373495458984375
3.04195890014621,-0.167594116210937,9.98860932617187,-0.354341845703125
3.04413878820773,-0.148440502929687,9.96945571289062,-0.4213794921875
3.04638973936605,-0.181959326171875,9.96466730957031,-0.392649072265625
3.04864069052436,-0.205901342773437,10.0029745361328,-0.36391865234375
3.05089164168267,-0.1915361328125,9.96945571289062,-0.383072265625
3.05314517835802,-0.205901342773437,9.93593688964844,-0.354341845703125
3.05539871503336,-0.21068974609375,9.96466730957031,-0.3447650390625
3.05765225170871,-0.201112939453125,9.96945571289062,-0.359130249023437
3.05990551239664,-0.244208569335937,9.99339772949219,-0.349553442382812
3.06215877308457,-0.239420166015625,10.0077629394531,-0.316034619140625
3.06441203377251,-0.220266552734375,10.036493359375,-0.320823022460937
3.06665611687074,-0.253785375976562,10.0173397460938,-0.40222587890625
3.06890019996898,-0.258573779296875,10.0077629394531,-0.36391865234375
3.07114428306721,-0.239420166015625,9.98860932617187,-0.387860668945312
3.07335060307227,-0.239420166015625,9.9981861328125,-0.330399829101562
3.07555692307733,-0.2681505859375,9.98382092285156,-0.445321508789062
3.0777632430824,-0.258573779296875,10.0029745361328,-0.368707055664062
3.08002869767224,-0.2681505859375,9.98860932617187,-0.320823022460937
3.08229415226208,-0.263362182617187,10.0412817626953,-0.378283862304687
3.08455960685192,-0.239420166015625,10.0221281494141,-0.368707055664062
3.08682755878335,-0.229843359375,10.0173397460938,-0.349553442382812
3.08909551071477,-0.277727392578125,10.036493359375,-0.373495458984375
3.09136346264619,-0.24899697265625,10.036493359375,-0.368707055664062
3.09370207977944,-0.258573779296875,10.0125513427734,-0.296881005859375
3.09604069691269,-0.258573779296875,10.036493359375,-0.32561142578125
3.09837931404593,-0.234631762695312,10.0508585693359,-0.330399829101562
3.10071735479029,-0.277727392578125,9.98860932617187,-0.3447650390625
3.10305539553465,-0.239420166015625,10.0173397460938,-0.368707055664062
3.10539343627901,-0.263362182617187,10.0125513427734,-0.311246215820312
3.10769715546304,-0.282515795898438,10.0125513427734,-0.435744702148437
3.11000087464707,-0.282515795898438,10.0077629394531,-0.373495458984375
3.1123045938311,-0.253785375976562,9.99339772949219,-0.373495458984375
3.11457692076252,-0.296881005859375,9.98860932617187,-0.330399829101562
3.11684924769394,-0.277727392578125,9.9981861328125,-0.316034619140625
3.11912157462537,-0.335188232421875,10.0412817626953,-0.339976635742188
3.12139518307806,-0.311246215820312,10.0077629394531,-0.354341845703125
3.12366879153075,-0.292092602539062,10.0125513427734,-0.28730419921875
3.12594239998344,-0.272938989257812,10.0460701660156,-0.2681505859375
3.12821602682806,-0.3064578125,10.036493359375,-0.368707055664062
3.13048965367268,-0.282515795898438,9.9981861328125,-0.28730419921875
3.1327632805173,-0.24899697265625,10.0269165527344,-0.277727392578125
3.13504084090142,-0.258573779296875,10.036493359375,-0.32561142578125
3.13731840128553,-0.272938989257812,10.0173397460938,-0.349553442382812
3.13959596166965,-0.272938989257812,10.0125513427734,-0.397437475585937
3.14301547610107,-0.282515795898438,10.0412817626953,-0.296881005859375
3.14643499053249,-0.263362182617187,10.0556469726563,-0.28730419921875
3.14985450496392,-0.296881005859375,10.0221281494141,-0.32561142578125
3.15204327992052,-0.32561142578125,10.0508585693359,-0.282515795898438
3.15423205487712,-0.277727392578125,9.9981861328125,-0.272938989257812
3.15642082983371,-0.277727392578125,9.97903251953125,-0.292092602539062
3.15860777905246,-0.258573779296875,10.0029745361328,-0.301669409179687
3.16079472827122,-0.253785375976562,9.96945571289062,-0.301669409179687
3.16298167748997,-0.272938989257812,9.98860932617187,-0.2681505859375
3.16516865285889,-0.21068974609375,9.95509050292969,-0.24899697265625
3.16735562822781,-0.24899697265625,9.95987890625,-0.296881005859375
3.16954260359674,-0.24899697265625,9.96466730957031,-0.282515795898438
3.17165703133111,-0.196324536132812,9.92636008300781,-0.311246215820312
3.17377145906549,-0.186747729492187,9.86411083984375,-0.301669409179687
3.17588588679986,-0.229843359375,9.90241806640625,-0.3064578125
3.17806528469483,-0.205901342773437,9.89762966308594,-0.282515795898438
3.18024468258979,-0.205901342773437,9.883264453125,-0.239420166015625
3.18242408048476,-0.205901342773437,9.9215716796875,-0.2681505859375
3.18460263061497,-0.186747729492187,9.88805285644531,-0.28730419921875
3.18678118074517,-0.181959326171875,9.93593688964844,-0.296881005859375
3.18895973087538,-0.21068974609375,9.89762966308594,-0.196324536132812
3.19113878729899,-0.148440502929687,9.96466730957031,-0.277727392578125
3.19331784372261,-0.162805712890625,9.95509050292969,-0.282515795898438
3.19549690014622,-0.158017309570312,9.95987890625,-0.282515795898438
3.19767679869223,-0.177170922851562,9.96466730957031,-0.234631762695312
3.19985669723823,-0.124498486328125,9.96945571289062,-0.316034619140625
3.20203659578424,-0.129286889648437,9.97903251953125,-0.292092602539062
3.20421724085803,-0.148440502929687,10.0125513427734,-0.3447650390625
3.20639788593181,-0.148440502929687,9.98382092285156,-0.32561142578125
3.2085785310056,-0.124498486328125,9.98382092285156,-0.330399829101562
3.21076643378338,-0.110133276367187,10.0317049560547,-0.28730419921875
3.21295433656116,-0.143652099609375,10.0077629394531,-0.311246215820312
3.21514223933894,-0.100556469726563,10.0269165527344,-0.277727392578125
3.21740484285456,-0.119710083007812,10.0460701660156,-0.28730419921875
3.21966744637019,-0.100556469726563,10.0125513427734,-0.282515795898438
3.22193004988581,-0.076614453125,9.97424411621094,-0.239420166015625
3.22426978225344,-0.13407529296875,10.0029745361328,-0.320823022460937
3.22660951462106,-0.110133276367187,9.9981861328125,-0.3064578125
3.22894924698868,-0.0909796630859375,9.9981861328125,-0.296881005859375
3.23128962003556,-0.1149216796875,10.0029745361328,-0.301669409179687
3.23362999308243,-0.100556469726563,9.97903251953125,-0.349553442382812
3.23597036612931,-0.105344873046875,9.94551369628906,-0.335188232421875
3.2383854487031,-0.13407529296875,9.96945571289062,-0.335188232421875
3.24080053127688,-0.1149216796875,9.97903251953125,-0.335188232421875
3.24321561385067,-0.076614453125,9.96945571289062,-0.296881005859375
3.24556017862932,-0.124498486328125,9.94551369628906,-0.301669409179687
3.24790474340796,-0.100556469726563,9.94551369628906,-0.354341845703125
3.25024930818661,-0.110133276367187,9.9981861328125,-0.316034619140625
3.25259297648088,-0.17238251953125,9.96466730957031,-0.311246215820312
3.25493664477515,-0.148440502929687,9.9215716796875,-0.320823022460937
3.25728031306942,-0.162805712890625,9.93593688964844,-0.2681505859375
3.25962385506161,-0.105344873046875,9.95030209960937,-0.234631762695312
3.26196739705379,-0.167594116210937,9.94072529296875,-0.3447650390625
3.26431093904598,-0.181959326171875,9.96466730957031,-0.282515795898438
3.26899478046308,-0.158017309570312,9.9981861328125,-0.320823022460937
3.27367862188018,-0.0909796630859375,9.95987890625,-0.354341845703125
3.27836246329728,-0.138863696289063,9.97424411621094,-0.32561142578125
3.28533270369441,-0.167594116210937,10.0125513427734,-0.435744702148437
3.29230294409155,-0.15322890625,10.0173397460938,-0.397437475585937
3.29927318448869,-0.15322890625,9.97424411621094,-0.387860668945312
3.30622257131595,-0.215478149414062,10.0460701660156,-0.320823022460937
3.31317195814321,-0.201112939453125,10.0604353759766,-0.339976635742188
3.32012134497046,-0.21068974609375,10.0173397460938,-0.32561142578125
3.32246081203861,-0.196324536132812,10.0412817626953,-0.330399829101562
3.32480027910675,-0.196324536132812,10.0269165527344,-0.316034619140625
3.3271397461749,-0.21068974609375,10.0029745361328,-0.277727392578125
3.32944561092099,-0.225054956054687,10.0556469726563,-0.3064578125
3.33175147566708,-0.220266552734375,10.0173397460938,-0.354341845703125
3.33405734041318,-0.234631762695312,10.0269165527344,-0.316034619140625
3.33632786455597,-0.21068974609375,10.0269165527344,-0.258573779296875
3.33859838869877,-0.244208569335937,10.0460701660156,-0.24899697265625
3.34086891284157,-0.220266552734375,10.0460701660156,-0.301669409179687
3.34313858254643,-0.258573779296875,10.0508585693359,-0.3064578125
3.34540825225129,-0.21068974609375,10.0125513427734,-0.239420166015625
3.34767792195615,-0.201112939453125,10.0412817626953,-0.320823022460937
3.35001613799347,-0.1915361328125,10.0077629394531,-0.32561142578125
3.35235435403079,-0.201112939453125,10.036493359375,-0.258573779296875
3.35469257006812,-0.220266552734375,10.0173397460938,-0.292092602539062
3.35703401011803,-0.215478149414062,10.0269165527344,-0.258573779296875
3.35937545016795,-0.201112939453125,9.98860932617187,-0.215478149414062
3.36171689021786,-0.201112939453125,10.0173397460938,-0.258573779296875
3.36402383135284,-0.181959326171875,9.98860932617187,-0.272938989257812
3.36633077248782,-0.220266552734375,10.0125513427734,-0.316034619140625
3.3686377136228,-0.234631762695312,9.97424411621094,-0.253785375976562
3.37090819159589,-0.24899697265625,9.96466730957031,-0.296881005859375
3.37317866956898,-0.196324536132812,9.96945571289062,-0.3064578125
3.37544914754207,-0.229843359375,10.0221281494141,-0.277727392578125
3.37768298781985,-0.181959326171875,10.0173397460938,-0.3447650390625
3.37991682809763,-0.234631762695312,9.99339772949219,-0.263362182617187
3.3821506683754,-0.220266552734375,10.0269165527344,-0.316034619140625
3.38441798000735,-0.225054956054687,9.96945571289062,-0.378283862304687
3.3866852916393,-0.234631762695312,9.95030209960937,-0.277727392578125
3.38895260327124,-0.239420166015625,9.9981861328125,-0.296881005859375
3.39122413663713,-0.239420166015625,9.9981861328125,-0.316034619140625
3.39349567000301,-0.244208569335937,9.96466730957031,-0.301669409179687
3.3957672033689,-0.263362182617187,9.97903251953125,-0.32561142578125
3.39800282961673,-0.229843359375,9.95987890625,-0.272938989257812
3.40023845586456,-0.234631762695312,9.96466730957031,-0.244208569335937
3.40247408211239,-0.282515795898438,9.99339772949219,-0.272938989257812
3.40467419647871,-0.258573779296875,10.0269165527344,-0.272938989257812
3.40687431084503,-0.277727392578125,9.9981861328125,-0.3064578125
3.40907442521135,-0.263362182617187,9.99339772949219,-0.296881005859375
3.41127422881378,-0.272938989257812,9.99339772949219,-0.282515795898438
3.41347403241621,-0.215478149414062,10.0125513427734,-0.282515795898438
3.41567383601864,-0.244208569335937,9.98860932617187,-0.397437475585937
3.41793754619659,-0.244208569335937,9.97903251953125,-0.272938989257812
3.42020125637455,-0.229843359375,10.0077629394531,-0.36391865234375
3.4224649665525,-0.258573779296875,10.0029745361328,-0.311246215820312
3.42465377034482,-0.253785375976562,9.99339772949219,-0.316034619140625
3.42684257413714,-0.205901342773437,9.97424411621094,-0.36391865234375
3.42903137792946,-0.196324536132812,9.98860932617187,-0.335188232421875
3.4312186677515,-0.1915361328125,9.97424411621094,-0.301669409179687
3.43340595757355,-0.225054956054687,9.98382092285156,-0.3064578125
3.4355932473956,-0.244208569335937,10.0029745361328,-0.359130249023437
3.43785275705272,-0.196324536132812,9.97903251953125,-0.407014282226562
3.44011226670984,-0.215478149414062,10.0508585693359,-0.407014282226562
3.44237177636696,-0.205901342773437,9.99339772949219,-0.301669409179687
3.44463210861522,-0.21068974609375,10.0125513427734,-0.28730419921875
3.44689244086349,-0.215478149414062,9.98860932617187,-0.253785375976562
3.44915277311175,-0.177170922851562,9.97903251953125,-0.292092602539062
3.45141385899499,-0.143652099609375,10.0029745361328,-0.311246215820312
3.45367494487824,-0.181959326171875,9.96945571289062,-0.282515795898438
3.45593603076149,-0.15322890625,10.0077629394531,-0.301669409179687
3.45827229562694,-0.186747729492187,10.0029745361328,-0.292092602539062
3.46060856049239,-0.167594116210937,9.95509050292969,-0.277727392578125
3.46294482535784,-0.177170922851562,9.9981861328125,-0.301669409179687
3.46877918381731,-0.158017309570312,10.0077629394531,-0.234631762695312
3.47461354227678,-0.177170922851562,10.0412817626953,-0.196324536132812
3.48044790073626,-0.148440502929687,9.9981861328125,-0.253785375976562
3.48276553038171,-0.186747729492187,9.9981861328125,-0.253785375976562
3.48508316002716,-0.215478149414062,10.0221281494141,-0.292092602539062
3.48740078967262,-0.13407529296875,10.0029745361328,-0.244208569335937
3.48970329488774,-0.177170922851562,9.9981861328125,-0.239420166015625
3.49200580010285,-0.220266552734375,10.0173397460938,-0.3064578125
3.49430830531797,-0.201112939453125,9.9981861328125,-0.292092602539062
3.49886950885665,-0.1915361328125,9.99339772949219,-0.215478149414062
3.50343071239534,-0.220266552734375,9.99339772949219,-0.196324536132812
3.50799191593402,-0.24899697265625,9.98860932617187,-0.220266552734375
3.51026189857291,-0.205901342773437,10.0029745361328,-0.316034619140625
3.5125318812118,-0.229843359375,10.0173397460938,-0.316034619140625
3.51480186385069,-0.229843359375,10.0029745361328,-0.282515795898438
3.52071534844271,-0.201112939453125,9.93593688964844,-0.272938989257812
3.52662883303473,-0.1915361328125,9.97424411621094,-0.3064578125
3.53254231762674,-0.186747729492187,9.95987890625,-0.32561142578125
3.53492006448004,-0.225054956054687,9.95987890625,-0.292092602539062
3.53729781133334,-0.215478149414062,9.94551369628906,-0.263362182617187
3.53967555818664,-0.196324536132812,9.94551369628906,-0.359130249023437
3.54202268063673,-0.17238251953125,9.96945571289062,-0.292092602539062
3.54436980308682,-0.215478149414062,9.96945571289062,-0.320823022460937
3.5467169255369,-0.205901342773437,9.98860932617187,-0.253785375976562
3.54906605433465,-0.196324536132812,9.95030209960937,-0.311246215820312
3.55141518313239,-0.181959326171875,9.94551369628906,-0.354341845703125
3.55376431193014,-0.1915361328125,9.95030209960937,-0.296881005859375
3.55611393584507,-0.201112939453125,9.96945571289062,-0.292092602539062
3.55846355976,-0.162805712890625,9.95987890625,-0.201112939453125
3.56081318367493,-0.17238251953125,10.0173397460938,-0.292092602539062
3.56316155303257,-0.177170922851562,9.98860932617187,-0.320823022460937
3.56550992239021,-0.177170922851562,9.95987890625,-0.234631762695312
3.56785829174784,-0.21068974609375,10.0077629394531,-0.311246215820312
3.57017565454081,-0.196324536132812,10.0221281494141,-0.272938989257812
3.57249301733378,-0.158017309570312,10.0029745361328,-0.339976635742188
3.57481038012675,-0.148440502929687,9.96945571289062,-0.301669409179687
3.58061734301737,-0.138863696289063,9.97903251953125,-0.316034619140625
3.586424305908,-0.148440502929687,10.0269165527344,-0.263362182617187
3.59223126879862,-0.158017309570312,9.9981861328125,-0.316034619140625
3.59442006317796,-0.162805712890625,10.0029745361328,-0.292092602539062
3.5966088575573,-0.158017309570312,10.0077629394531,-0.296881005859375
3.59879765193664,-0.158017309570312,9.97903251953125,-0.3064578125
3.60105766767015,-0.129286889648437,9.9215716796875,-0.330399829101562
3.60331768340366,-0.138863696289063,9.98860932617187,-0.316034619140625
3.60557769913717,-0.15322890625,9.99339772949219,-0.3447650390625
3.60783838479255,-0.158017309570312,10.0125513427734,-0.301669409179687
3.61009907044793,-0.138863696289063,9.97424411621094,-0.253785375976562
3.61235975610331,-0.148440502929687,9.98382092285156,-0.311246215820312
3.61462169892015,-0.143652099609375,9.95509050292969,-0.316034619140625
3.61688364173699,-0.162805712890625,9.97903251953125,-0.2681505859375
3.61914558455384,-0.124498486328125,9.93114848632812,-0.292092602539062
3.62140877726217,-0.177170922851562,9.9981861328125,-0.335188232421875
3.6236719699705,-0.148440502929687,9.95509050292969,-0.28730419921875
3.62593516267884,-0.15322890625,9.96466730957031,-0.330399829101562
3.62819878192797,-0.186747729492187,9.95030209960937,-0.263362182617187
3.6304624011771,-0.13407529296875,9.94551369628906,-0.272938989257812
3.63272602042623,-0.105344873046875,9.97424411621094,-0.3447650390625
3.63498963056078,-0.129286889648437,9.97903251953125,-0.292092602539062
3.63725324069533,-0.143652099609375,9.99339772949219,-0.335188232421875
3.63951685082988,-0.0909796630859375,9.98860932617187,-0.316034619140625
3.64176538571486,-0.143652099609375,9.9981861328125,-0.3064578125
3.64401392059985,-0.100556469726563,9.98860932617187,-0.296881005859375
3.64626245548483,-0.13407529296875,10.0221281494141,-0.282515795898438
3.64967533688674,-0.105344873046875,10.0221281494141,-0.320823022460937
3.65308821828865,-0.162805712890625,10.0173397460938,-0.339976635742188
3.65650109969056,-0.13407529296875,10.0556469726563,-0.28730419921875
3.65876910989021,-0.0718260498046875,10.0077629394531,-0.320823022460937
3.66103712008986,-0.105344873046875,10.0317049560547,-0.3064578125
3.66330513028952,-0.100556469726563,10.0269165527344,-0.339976635742188
3.66556843975132,-0.119710083007812,10.0221281494141,-0.292092602539062
3.66783174921313,-0.13407529296875,10.0173397460938,-0.24899697265625
3.67009505867493,-0.143652099609375,9.97903251953125,-0.24899697265625
3.67235738462979,-0.13407529296875,9.98382092285156,-0.296881005859375
3.67461971058466,-0.0909796630859375,9.98382092285156,-0.277727392578125
3.67688203653952,-0.0909796630859375,9.95987890625,-0.292092602539062
3.67914349053257,-0.067037646484375,10.0125513427734,-0.253785375976562
3.68140494452563,-0.100556469726563,9.97903251953125,-0.244208569335937
3.68366639851869,-0.076614453125,9.95509050292969,-0.263362182617187
3.68599719854039,-0.076614453125,9.97424411621094,-0.258573779296875
3.68832799856209,-0.086191259765625,9.98860932617187,-0.1915361328125
3.6906587985838,-0.05746083984375,9.9215716796875,-0.234631762695312
3.69293292423484,-0.076614453125,9.95987890625,-0.263362182617187
3.69520704988588,-0.0526724365234375,9.94072529296875,-0.229843359375
3.69748117553692,-0.0909796630859375,9.96466730957031,-0.215478149414062
3.69975651917841,-0.086191259765625,9.94551369628906,-0.24899697265625
3.70203186281991,-0.0526724365234375,9.97903251953125,-0.225054956054687
3.7043072064614,-0.047884033203125,9.9215716796875,-0.272938989257812
3.70658273684334,-0.05746083984375,9.96945571289062,-0.28730419921875
3.70885826722529,-0.076614453125,9.95987890625,-0.301669409179687
3.71113379760723,-0.009576806640625,9.97903251953125,-0.32561142578125
3.71333688484682,-0.0430956298828125,9.96945571289062,-0.316034619140625
3.7155399720864,-0.0622492431640625,10.0125513427734,-0.272938989257812
3.71774305932598,-0.067037646484375,10.0077629394531,-0.292092602539062
3.71993064775914,-0.0909796630859375,10.0221281494141,-0.349553442382812
3.7221182361923,-0.0814028564453125,9.98860932617187,-0.263362182617187
3.72430582462546,-0.067037646484375,9.95030209960937,-0.28730419921875
3.72649354836678,-0.0430956298828125,10.0125513427734,-0.263362182617187
3.7286812721081,-0.105344873046875,9.97424411621094,-0.229843359375
3.73086899584942,-0.067037646484375,10.0173397460938,-0.253785375976562
3.73305685978171,-0.1149216796875,9.99339772949219,-0.282515795898438
3.735244723714,-0.105344873046875,9.99339772949219,-0.24899697265625
3.7374325876463,-0.0718260498046875,9.95030209960937,-0.316034619140625
3.73954760500741,-0.09576806640625,9.94072529296875,-0.292092602539062
3.74166262236852,-0.067037646484375,9.99339772949219,-0.239420166015625
3.74377763972963,-0.119710083007812,9.99339772949219,-0.3064578125
3.74581907028518,-0.110133276367187,9.98382092285156,-0.311246215820312
3.74786050084074,-0.138863696289063,9.98860932617187,-0.253785375976562
3.74990193139629,-0.119710083007812,9.98860932617187,-0.263362182617187
3.75193438213414,-0.124498486328125,9.99339772949219,-0.330399829101562
3.75396683287199,-0.105344873046875,9.97903251953125,-0.215478149414062
3.75599928360983,-0.09576806640625,9.98860932617187,-0.272938989257812
3.75803317377368,-0.110133276367187,10.0077629394531,-0.330399829101562
3.76006706393752,-0.1149216796875,9.94551369628906,-0.330399829101562
3.76210095410137,-0.129286889648437,9.9981861328125,-0.2681505859375
3.76413530545589,-0.119710083007812,9.96466730957031,-0.239420166015625
3.76616965681042,-0.138863696289063,9.96945571289062,-0.277727392578125
3.76820400816495,-0.129286889648437,10.0029745361328,-0.354341845703125
3.77023874508082,-0.13407529296875,9.98382092285156,-0.392649072265625
3.77227348199669,-0.124498486328125,9.99339772949219,-0.234631762695312
3.77430821891256,-0.124498486328125,10.0029745361328,-0.258573779296875
3.77634322840692,-0.148440502929687,9.98860932617187,-0.392649072265625
3.77837823790128,-0.143652099609375,9.99339772949219,-0.397437475585937
3.78041324739564,-0.167594116210937,10.0173397460938,-0.311246215820312
3.78251606499546,-0.1149216796875,9.9981861328125,-0.301669409179687
3.78461888259529,-0.148440502929687,9.99339772949219,-0.28730419921875
3.78672170019512,-0.162805712890625,10.0029745361328,-0.311246215820312
3.78882387597637,-0.148440502929687,9.98860932617187,-0.263362182617187
3.79092605175762,-0.1149216796875,9.96945571289062,-0.277727392578125
3.79302822753887,-0.1915361328125,9.98860932617187,-0.296881005859375
3.79512987079516,-0.181959326171875,10.0077629394531,-0.2681505859375
3.79723151405145,-0.13407529296875,9.98860932617187,-0.263362182617187
3.79933315730775,-0.186747729492187,10.0029745361328,-0.320823022460937
3.80143331475132,-0.162805712890625,10.0221281494141,-0.311246215820312
3.8035334721949,-0.158017309570312,9.99339772949219,-0.292092602539062
3.80563362963848,-0.162805712890625,10.0269165527344,-0.277727392578125
3.8077345721298,-0.162805712890625,9.97424411621094,-0.296881005859375
3.80983551462112,-0.186747729492187,10.0029745361328,-0.234631762695312
3.81193645711244,-0.143652099609375,10.0125513427734,-0.320823022460937
3.8141084002548,-0.186747729492187,9.99339772949219,-0.32561142578125
3.81628034339716,-0.17238251953125,10.0125513427734,-0.3447650390625
3.81845228653952,-0.17238251953125,9.97903251953125,-0.301669409179687
3.82062548716886,-0.129286889648437,10.0269165527344,-0.3447650390625
3.82279868779821,-0.138863696289063,10.0173397460938,-0.392649072265625
3.82497188842755,-0.105344873046875,9.9981861328125,-0.330399829101562
3.82713161935745,-0.15322890625,10.0077629394531,-0.373495458984375
3.82929135028736,-0.100556469726563,9.93114848632812,-0.378283862304687
3.83145108121727,-0.09576806640625,9.9981861328125,-0.368707055664062
3.83359222494376,-0.119710083007812,9.9981861328125,-0.392649072265625
3.83573336867025,-0.138863696289063,9.95987890625,-0.258573779296875
3.83787451239674,-0.105344873046875,9.9981861328125,-0.3447650390625
3.83999698471843,-0.100556469726563,9.95030209960937,-0.330399829101562
3.84211945704012,-0.105344873046875,9.96466730957031,-0.3064578125
3.84424192936181,-0.100556469726563,9.94551369628906,-0.225054956054687
3.8464299175888,-0.0909796630859375,9.94551369628906,-0.234631762695312
3.8486179058158,-0.129286889648437,9.97903251953125,-0.220266552734375
3.85080589404279,-0.124498486328125,9.96466730957031,-0.158017309570312
3.85299859358707,-0.119710083007812,9.94072529296875,-0.181959326171875
3.85519129313134,-0.09576806640625,9.95987890625,-0.1915361328125
3.85738399267561,-0.105344873046875,9.98382092285156,-0.239420166015625
3.85957709749332,-0.124498486328125,9.9981861328125,-0.186747729492187
3.86177020231102,-0.086191259765625,9.95987890625,-0.1915361328125
3.86396330712873,-0.0909796630859375,9.99339772949219,-0.215478149414062
3.86615541308576,-0.086191259765625,9.9981861328125,-0.220266552734375
3.86834751904279,-0.0814028564453125,9.9981861328125,-0.196324536132812
3.87053962499982,-0.119710083007812,9.97424411621094,-0.129286889648437
3.87269857763654,-0.0909796630859375,9.98860932617187,-0.167594116210937
3.87485753027326,-0.105344873046875,9.97903251953125,-0.13407529296875
3.87701648290998,-0.0909796630859375,9.95030209960937,-0.09576806640625
3.87920296099158,-0.0718260498046875,9.98382092285156,-0.119710083007812
3.88138943907317,-0.162805712890625,9.97903251953125,-0.143652099609375
3.88357591715477,-0.13407529296875,9.97424411621094,-0.181959326171875
3.8857631589625,-0.110133276367187,9.95509050292969,-0.129286889648437
3.88795040077022,-0.100556469726563,9.91678327636719,-0.1915361328125
3.89013764257795,-0.100556469726563,9.91678327636719,-0.205901342773437
3.89232509966345,-0.129286889648437,9.94072529296875,-0.181959326171875
3.89451255674895,-0.129286889648437,9.91678327636719,-0.158017309570312
3.89670001383446,-0.13407529296875,9.92636008300781,-0.220266552734375
3.89888747330711,-0.138863696289063,9.94551369628906,-0.15322890625
3.90107493277977,-0.1149216796875,9.9215716796875,-0.09576806640625
3.90326239225242,-0.1149216796875,9.95987890625,-0.100556469726563
3.90541764697248,-0.129286889648437,9.97424411621094,-0.13407529296875
3.90757290169253,-0.129286889648437,9.95987890625,-0.17238251953125
3.90972815641258,-0.13407529296875,9.95987890625,-0.143652099609375
3.91191350396033,-0.138863696289063,9.94551369628906,-0.17238251953125
3.91409885150807,-0.100556469726563,9.93114848632812,-0.196324536132812
3.91628419905581,-0.09576806640625,9.98382092285156,-0.225054956054687
3.91847042371944,-0.100556469726563,9.98860932617187,-0.24899697265625
3.92065664838307,-0.105344873046875,9.99339772949219,-0.292092602539062
3.9228428730467,-0.0909796630859375,10.0029745361328,-0.244208569335937
3.9250293371309,-0.100556469726563,10.036493359375,-0.258573779296875
3.9272158012151,-0.1149216796875,10.0604353759766,-0.32561142578125
3.9294022652993,-0.0909796630859375,10.0269165527344,-0.301669409179687
3.93158884082013,-0.0909796630859375,10.0556469726563,-0.292092602539062
3.93377541634097,-0.09576806640625,10.0843773925781,-0.3064578125
3.9359619918618,-0.0814028564453125,10.0843773925781,-0.296881005859375
3.93811430533836,-0.086191259765625,10.0939541992188,-0.1915361328125
3.94026661881492,-0.0143652099609375,10.0556469726563,-0.258573779296875
3.94241893229149,-0.076614453125,10.0700121826172,-0.272938989257812
3.94460353537308,-0.0718260498046875,10.0700121826172,-0.205901342773437
3.94678813845468,-0.009576806640625,10.0077629394531,-0.229843359375
3.94897274153628,-0.0526724365234375,10.0412817626953,-0.205901342773437
3.9511213981118,-0.0143652099609375,10.0460701660156,-0.201112939453125
3.95327005468732,-0.0239420166015625,10.0412817626953,-0.244208569335937
3.95541871126284,-0.028730419921875,10.0221281494141,-0.24899697265625
3.95753176871727,0.028730419921875,9.9981861328125,-0.21068974609375
3.95964482617169,0.028730419921875,9.95987890625,-0.15322890625
3.96175788362612,-0.01915361328125,10.0077629394531,-0.234631762695312
3.96387033995207,-0.0335188232421875,9.99339772949219,-0.253785375976562
3.96598279627803,-0.028730419921875,9.94551369628906,-0.1915361328125
3.96809525260398,-0.0239420166015625,9.98860932617187,-0.225054956054687
3.97020682731101,-0.0430956298828125,9.9981861328125,-0.220266552734375
3.97231840201804,-0.05746083984375,10.0029745361328,-0.167594116210937
3.97442997672507,-0.0718260498046875,9.95987890625,-0.17238251953125
3.97660891965042,-0.0718260498046875,9.97903251953125,-0.138863696289063
3.97878786257576,-0.067037646484375,9.9981861328125,-0.196324536132812
3.98096680550111,-0.05746083984375,9.97424411621094,-0.158017309570312
3.98314646044903,-0.100556469726563,10.0221281494141,-0.239420166015625
3.98532611539694,-0.0814028564453125,10.0269165527344,-0.244208569335937
3.98750577034486,-0.0718260498046875,10.0173397460938,-0.253785375976562
3.98983425379755,-0.0718260498046875,10.0556469726563,-0.21068974609375
3.99216273725024,-0.0814028564453125,10.0269165527344,-0.263362182617187
3.99449122070293,-0.0814028564453125,10.0508585693359,-0.244208569335937
3.99680453938782,-0.09576806640625,10.0029745361328,-0.229843359375
3.99911785807272,-0.076614453125,10.0125513427734,-0.263362182617187
4.00143117675762,-0.086191259765625,10.0412817626953,-0.205901342773437
4.00370135590258,-0.1149216796875,10.0317049560547,-0.24899697265625
4.00597153504755,-0.09576806640625,10.0556469726563,-0.282515795898438
4.00824171419251,-0.110133276367187,10.036493359375,-0.3064578125
4.01051107237393,-0.076614453125,10.0412817626953,-0.296881005859375
4.01278043055536,-0.100556469726563,10.0604353759766,-0.258573779296875
4.01504978873678,-0.119710083007812,10.0412817626953,-0.258573779296875
4.01738949207879,-0.0909796630859375,10.0269165527344,-0.282515795898438
4.01972919542081,-0.138863696289063,10.0460701660156,-0.24899697265625
4.02206889876282,-0.0718260498046875,10.0412817626953,-0.282515795898438
4.02448547146247,-0.148440502929687,9.99339772949219,-0.215478149414062
4.02690204416212,-0.119710083007812,10.0125513427734,-0.220266552734375
4.02931861686178,-0.124498486328125,10.0125513427734,-0.263362182617187
4.03173582986091,-0.110133276367187,10.0077629394531,-0.272938989257812
4.03415304286004,-0.119710083007812,9.97424411621094,-0.277727392578125
4.03657025585917,-0.1149216796875,9.98382092285156,-0.24899697265625
4.04594550444858,-0.1149216796875,9.99339772949219,-0.229843359375
4.05532075303799,-0.105344873046875,9.98860932617187,-0.177170922851562
4.0646960016274,-0.110133276367187,9.97903251953125,-0.239420166015625
4.06703770920119,-0.177170922851562,9.94072529296875,-0.148440502929687
4.06937941677497,-0.143652099609375,9.97903251953125,-0.1915361328125
4.07172112434876,-0.086191259765625,9.93593688964844,-0.201112939453125
4.07399417003018,-0.119710083007812,9.95987890625,-0.186747729492187
4.0762672157116,-0.119710083007812,9.94551369628906,-0.258573779296875
4.07854026139302,-0.09576806640625,9.96466730957031,-0.205901342773437
4.0807390047741,-0.1915361328125,9.91199487304687,-0.181959326171875
4.08293774815517,-0.15322890625,9.95030209960937,-0.143652099609375
4.08513649153625,-0.119710083007812,9.93114848632812,-0.124498486328125
4.08831858420118,-0.162805712890625,9.9981861328125,-0.196324536132812
4.09150067686611,-0.148440502929687,10.0269165527344,-0.13407529296875
4.09468276953104,-0.162805712890625,10.0556469726563,-0.167594116210937
4.10098457432704,-0.205901342773437,10.0029745361328,-0.158017309570312
4.10728637912305,-0.13407529296875,10.0412817626953,-0.196324536132812
4.11358818391906,-0.177170922851562,10.0221281494141,-0.220266552734375
4.11569881852192,-0.181959326171875,9.98860932617187,-0.244208569335937
4.11780945312479,-0.17238251953125,9.94072529296875,-0.244208569335937
4.11992008772765,-0.15322890625,9.96466730957031,-0.181959326171875
4.12203154188346,-0.138863696289063,9.95030209960937,-0.301669409179687
4.12414299603928,-0.129286889648437,9.95987890625,-0.186747729492187
4.1262544501951,-0.158017309570312,9.95987890625,-0.167594116210937
4.12836673659918,-0.148440502929687,9.93114848632812,-0.205901342773437
4.13047902300326,-0.167594116210937,9.94551369628906,-0.2681505859375
4.13259130940734,-0.167594116210937,9.94551369628906,-0.253785375976562
4.13492891675326,-0.124498486328125,9.95030209960937,-0.24899697265625
4.13726652409918,-0.119710083007812,9.95987890625,-0.277727392578125
4.1396041314451,-0.09576806640625,9.95030209960937,-0.2681505859375
4.14194489896897,-0.138863696289063,9.92636008300781,-0.258573779296875
4.14428566649284,-0.143652099609375,9.94551369628906,-0.3064578125
4.14662643401671,-0.1149216796875,9.96945571289062,-0.263362182617187
4.14896832254753,-0.15322890625,9.97424411621094,-0.28730419921875
4.15131021107835,-0.138863696289063,9.95509050292969,-0.296881005859375
4.15365209960916,-0.143652099609375,10.0077629394531,-0.301669409179687
4.15598855911437,-0.129286889648437,9.9981861328125,-0.3447650390625
4.15832501861958,-0.124498486328125,9.9981861328125,-0.373495458984375
4.16066147812478,-0.158017309570312,9.98382092285156,-0.301669409179687
4.162971333051,-0.177170922851562,9.98382092285156,-0.368707055664062
4.16528118797721,-0.148440502929687,9.97424411621094,-0.311246215820312
4.16759104290343,-0.129286889648437,10.0077629394531,-0.354341845703125
4.16987419667947,-0.177170922851562,9.98860932617187,-0.349553442382812
4.17215735045551,-0.148440502929687,9.99339772949219,-0.349553442382812
4.17444050423155,-0.148440502929687,9.96945571289062,-0.301669409179687
4.18254531979687,-0.119710083007812,10.0029745361328,-0.196324536132812
4.19065013536218,-0.110133276367187,9.98382092285156,-0.272938989257812
4.1987549509275,-0.162805712890625,10.0029745361328,-0.263362182617187
4.20562124650042,-0.138863696289063,10.0125513427734,-0.196324536132812
4.21248754207334,-0.162805712890625,10.0029745361328,-0.186747729492187
4.21935383764626,-0.1149216796875,10.0173397460938,-0.196324536132812
4.22161689352734,-0.138863696289063,10.036493359375,-0.215478149414062
4.22387994940842,-0.124498486328125,9.9981861328125,-0.225054956054687
4.2261430052895,-0.143652099609375,10.0221281494141,-0.124498486328125
4.22840609502474,-0.138863696289063,10.0269165527344,-0.138863696289063
4.23066918475998,-0.119710083007812,10.0125513427734,-0.181959326171875
4.23293227449522,-0.148440502929687,10.0173397460938,-0.158017309570312
4.23519518888324,-0.129286889648437,10.0077629394531,-0.119710083007812
4.23745810327126,-0.15322890625,9.95030209960937,-0.167594116210937
4.23972101765928,-0.148440502929687,9.9981861328125,-0.220266552734375
4.24198498890494,-0.129286889648437,9.96945571289062,-0.21068974609375
4.2442489601506,-0.105344873046875,10.0077629394531,-0.177170922851562
4.24651293139626,-0.110133276367187,9.9981861328125,-0.167594116210937
4.24877495700389,-0.124498486328125,9.98860932617187,-0.229843359375
4.25103698261153,-0.100556469726563,9.97424411621094,-0.196324536132812
4.25329900821917,-0.162805712890625,10.0173397460938,-0.177170922851562
4.2555607837183,-0.105344873046875,9.91678327636719,-0.196324536132812
4.25782255921743,-0.124498486328125,9.98860932617187,-0.1915361328125
4.26008433471656,-0.09576806640625,9.98382092285156,-0.148440502929687
4.26234468031118,-0.100556469726563,9.95030209960937,-0.239420166015625
4.2646050259058,-0.119710083007812,9.94072529296875,-0.196324536132812
4.26686537150042,-0.129286889648437,9.94072529296875,-0.158017309570312
4.26912566425215,-0.076614453125,9.95030209960937,-0.272938989257812
4.27138595700389,-0.129286889648437,9.97424411621094,-0.220266552734375
4.27364624975563,-0.105344873046875,9.95987890625,-0.215478149414062
4.27583495656987,-0.0814028564453125,9.97424411621094,-0.220266552734375
4.2780236633841,-0.1149216796875,9.97903251953125,-0.1915361328125
4.28021237019834,-0.124498486328125,10.0125513427734,-0.229843359375
4.28240791425216,-0.05746083984375,9.98382092285156,-0.229843359375
4.28460345830598,-0.0909796630859375,9.97424411621094,-0.229843359375
4.28679900235979,-0.100556469726563,9.9981861328125,-0.21068974609375
4.28899604587108,-0.0526724365234375,9.97424411621094,-0.225054956054687
4.29119308938237,-0.124498486328125,9.98860932617187,-0.17238251953125
4.29339013289365,-0.119710083007812,9.9981861328125,-0.215478149414062
4.29551486672612,-0.0909796630859375,9.98382092285156,-0.239420166015625
4.29763960055858,-0.124498486328125,9.97424411621094,-0.205901342773437
4.29976433439104,-0.162805712890625,9.9981861328125,-0.162805712890625
4.30188821763757,-0.143652099609375,9.9981861328125,-0.158017309570312
4.3040121008841,-0.119710083007812,10.0221281494141,-0.21068974609375
4.30613598413063,-0.09576806640625,10.0125513427734,-0.215478149414062
4.30831915622264,-0.09576806640625,9.98860932617187,-0.196324536132812
4.31050232831466,-0.100556469726563,10.0173397460938,-0.181959326171875
4.31268550040667,-0.0909796630859375,10.0077629394531,-0.17238251953125
4.31487164786761,-0.110133276367187,10.036493359375,-0.181959326171875
4.31705779532855,-0.100556469726563,10.0125513427734,-0.201112939453125
4.31924394278949,-0.129286889648437,10.0173397460938,-0.234631762695312
4.32143132535785,-0.124498486328125,10.0029745361328,-0.225054956054687
4.32361870792621,-0.110133276367187,10.0700121826172,-0.186747729492187
4.32580609049456,-0.119710083007812,10.0077629394531,-0.119710083007812
4.32799350908723,-0.143652099609375,10.0508585693359,-0.148440502929687
4.3301809276799,-0.138863696289063,10.0460701660156,-0.196324536132812
4.33236834627256,-0.158017309570312,10.0700121826172,-0.1915361328125
4.33455574243142,-0.129286889648437,10.0987426025391,-0.201112939453125
4.33674313859027,-0.138863696289063,10.0412817626953,-0.220266552734375
4.33893053474913,-0.138863696289063,10.0508585693359,-0.201112939453125
4.34111725311935,-0.13407529296875,10.0604353759766,-0.239420166015625
4.34330397148958,-0.177170922851562,10.0556469726563,-0.205901342773437
4.3454906898598,-0.162805712890625,10.0652237792969,-0.263362182617187
4.34767786884201,-0.1915361328125,10.1131078125,-0.215478149414062
4.34986504782421,-0.196324536132812,10.0748005859375,-0.1915361328125
4.35205222680641,-0.17238251953125,10.0604353759766,-0.229843359375
4.35438562410459,-0.148440502929687,10.0700121826172,-0.339976635742188
4.35671902140277,-0.205901342773437,10.0843773925781,-0.282515795898438
4.35905241870094,-0.201112939453125,10.0939541992188,-0.253785375976562
4.36370441753449,-0.158017309570312,10.0700121826172,-0.387860668945312
4.36835641636804,-0.119710083007812,10.0843773925781,-0.282515795898438
4.37300841520159,-0.105344873046875,10.0939541992188,-0.296881005859375
4.37525578979469,-0.143652099609375,10.1035310058594,-0.296881005859375
4.37750316438779,-0.15322890625,10.1035310058594,-0.28730419921875
4.37975053898088,-0.129286889648437,10.0460701660156,-0.292092602539062
4.38194553312151,-0.138863696289063,10.0891657958984,-0.330399829101562
4.38414052726213,-0.119710083007812,10.0891657958984,-0.32561142578125
4.38633552140275,-0.105344873046875,10.0843773925781,-0.296881005859375
4.38860064759633,-0.143652099609375,10.0748005859375,-0.282515795898438
4.3908657737899,-0.09576806640625,10.0652237792969,-0.24899697265625
4.39313089998348,-0.129286889648437,10.0700121826172,-0.263362182617187
4.39540161710587,-0.13407529296875,10.036493359375,-0.244208569335937
4.39767233422827,-0.13407529296875,10.0700121826172,-0.253785375976562
4.39994305135066,-0.129286889648437,10.0317049560547,-0.28730419921875
4.40221308270917,-0.13407529296875,10.0269165527344,-0.292092602539062
4.40448311406768,-0.119710083007812,10.0652237792969,-0.282515795898438
4.40675314542618,-0.1149216796875,10.0412817626953,-0.28730419921875
4.4135514752873,-0.0526724365234375,10.1849338623047,-0.3064578125
4.42034980514841,-0.105344873046875,10.1801454589844,-0.373495458984375
4.42714813500952,-0.0909796630859375,10.1753570556641,-0.36391865234375
4.42938968741838,-0.0526724365234375,10.1466266357422,-0.32561142578125
4.43163123982723,-0.0430956298828125,10.2136642822266,-0.311246215820312
4.43387279223609,-0.05746083984375,10.2280294921875,-0.3064578125
4.43608577791317,-0.0622492431640625,10.1801454589844,-0.296881005859375
4.43829876359026,-0.0143652099609375,10.2136642822266,-0.330399829101562
4.44051174926734,-0.086191259765625,10.2040874755859,-0.301669409179687
4.44271738983809,-0.0383072265625,10.2471831054687,-0.296881005859375
4.44492303040883,-0.0239420166015625,10.2328178955078,-0.272938989257812
4.44712867097958,-0.0909796630859375,10.2232410888672,-0.277727392578125
4.45043361303687,-0.0718260498046875,10.2040874755859,-0.201112939453125
4.45373855509416,-0.047884033203125,10.1801454589844,-0.220266552734375
4.45704349715145,-0.105344873046875,10.1801454589844,-0.220266552734375
4.45923129033721,-0.067037646484375,10.1753570556641,-0.24899697265625
4.46141908352297,-0.0909796630859375,10.1609918457031,-0.17238251953125
4.46360687670874,-0.0909796630859375,10.1705686523437,-0.15322890625
4.46579331410023,-0.1149216796875,10.1274730224609,-0.181959326171875
4.46797975149172,-0.0909796630859375,10.1609918457031,-0.119710083007812
4.47016618888321,-0.124498486328125,10.1226846191406,-0.181959326171875
4.47242358384849,-0.143652099609375,10.1370498291016,-0.162805712890625
4.47468097881377,-0.119710083007812,10.1370498291016,-0.0909796630859375
4.47693837377905,-0.138863696289063,10.1322614257812,-0.110133276367187
4.47919680509415,-0.13407529296875,10.1418382324219,-0.0430956298828125
4.48145523640926,-0.13407529296875,10.1466266357422,-0.13407529296875
4.48371366772436,-0.177170922851562,10.1418382324219,-0.0909796630859375
4.48597217141359,-0.186747729492187,10.1274730224609,-0.05746083984375
4.48823067510283,-0.167594116210937,10.1705686523437,-0.05746083984375
4.49048917879207,-0.15322890625,10.1370498291016,-0.086191259765625
4.49274773044137,-0.201112939453125,10.1083194091797,-0.0526724365234375
4.49500628209068,-0.21068974609375,10.1131078125,-0.076614453125
4.49726483373998,-0.234631762695312,10.1131078125,-0.0383072265625
4.49954627042618,-0.21068974609375,10.0939541992188,-0.0430956298828125
4.50182770711238,-0.229843359375,10.0939541992188,-0.047884033203125
4.50410914379857,-0.234631762695312,10.1035310058594,-0.0622492431640625
4.50637461423043,-0.263362182617187,10.0652237792969,-0.09576806640625
4.50864008466229,-0.234631762695312,10.0891657958984,-0.047884033203125
4.51090555509415,-0.239420166015625,10.0795889892578,-0.1149216796875
4.51316974438451,-0.234631762695312,10.036493359375,-0.143652099609375
4.51543393367488,-0.239420166015625,10.0748005859375,-0.100556469726563
4.51769812296524,-0.253785375976562,10.0795889892578,-0.100556469726563
4.52003531773521,-0.229843359375,10.0939541992188,-0.143652099609375
4.52237251250518,-0.24899697265625,10.0173397460938,-0.167594116210937
4.52470970727514,-0.239420166015625,10.0460701660156,-0.177170922851562
4.52704952704511,-0.220266552734375,10.0795889892578,-0.158017309570312
4.52938934681507,-0.201112939453125,10.0700121826172,-0.167594116210937
4.53172916658504,-0.205901342773437,10.0652237792969,-0.143652099609375
4.53403441636802,-0.196324536132812,10.0460701660156,-0.158017309570312
4.53633966615101,-0.17238251953125,10.0604353759766,-0.215478149414062
4.53864491593399,-0.162805712890625,10.0700121826172,-0.181959326171875
4.54091316549997,-0.158017309570312,10.0795889892578,-0.186747729492187
4.54318141506594,-0.17238251953125,10.0748005859375,-0.28730419921875
4.54544966463191,-0.17238251953125,10.0987426025391,-0.296881005859375
4.54884577970352,-0.0909796630859375,10.1418382324219,-0.244208569335937
4.55224189477514,-0.15322890625,10.1226846191406,-0.186747729492187
4.55563800984675,-0.148440502929687,10.1370498291016,-0.177170922851562
4.55790106388321,-0.119710083007812,10.1514150390625,-0.196324536132812
4.56016411791967,-0.119710083007812,10.1705686523437,-0.21068974609375
4.56242717195613,-0.138863696289063,10.1657802490234,-0.186747729492187
4.56469045906551,-0.100556469726563,10.1466266357422,-0.158017309570312
4.56695374617488,-0.086191259765625,10.1657802490234,-0.13407529296875
4.56921703328426,-0.119710083007812,10.2232410888672,-0.0909796630859375
4.57371715085154,-0.047884033203125,10.2088758789062,-0.028730419921875
4.57821726841881,-0.0383072265625,10.1992990722656,-0.0526724365234375
4.58271738598609,-0.0909796630859375,10.2136642822266,0.0430956298828125
4.58505665139408,-0.0430956298828125,10.2136642822266,-0.0335188232421875
4.58739591680206,-0.0383072265625,10.1753570556641,-0.0335188232421875
4.58973518221005,-0.0622492431640625,10.1992990722656,0.0
4.59207660582116,-0.0430956298828125,10.2088758789062,-0.0239420166015625
4.59441802943227,-0.0143652099609375,10.1418382324219,0.0047884033203125
4.59675945304338,0.0239420166015625,10.1466266357422,0.028730419921875
4.59909798201474,-0.0047884033203125,10.1226846191406,-0.009576806640625
4.60143651098609,-0.0239420166015625,10.1657802490234,-0.0239420166015625
4.60377503995744,-0.0047884033203125,10.0939541992188,0.009576806640625
4.60604829505727,-0.009576806640625,10.0987426025391,0.0430956298828125
4.6083215501571,0.0430956298828125,10.0891657958984,-0.067037646484375
4.61059480525692,0.067037646484375,10.0939541992188,-0.0430956298828125
4.61286816040015,0.0143652099609375,10.0795889892578,-0.0383072265625
4.61514151554338,0.0718260498046875,10.0939541992188,-0.0047884033203125
4.61741487068661,0.0718260498046875,10.0652237792969,-0.0239420166015625
4.61969085603818,0.100556469726563,10.0508585693359,0.0383072265625
4.62196684138974,0.0526724365234375,10.0843773925781,-0.01915361328125
4.6242428267413,0.13407529296875,10.0652237792969,0.0383072265625
4.62652074134634,0.110133276367187,10.0652237792969,-0.009576806640625
4.62879865595138,0.158017309570312,10.1178962158203,0.0
4.63107657055641,0.124498486328125,10.1035310058594,0.0335188232421875
4.63576515817577,0.05746083984375,10.1466266357422,0.09576806640625
4.64045374579513,0.09576806640625,10.1705686523437,0.138863696289063
4.64514233341448,0.0909796630859375,10.1849338623047,0.201112939453125
4.64748561933028,0.0430956298828125,10.1992990722656,0.244208569335937
4.64982890524608,0.0430956298828125,10.2232410888672,0.196324536132812
4.65217219116188,0.0239420166015625,10.2184526855469,0.239420166015625
4.65459053621396,-0.0383072265625,10.2423947021484,0.3064578125
4.65700888126605,-0.0047884033203125,10.2615483154297,0.253785375976562
4.65942722631813,-0.0622492431640625,10.3190091552734,0.3064578125
4.66184797512455,-0.086191259765625,10.2950671386719,0.282515795898438
4.66426872393098,-0.119710083007812,10.2950671386719,0.282515795898438
4.6666894727374,-0.110133276367187,10.3046439453125,0.272938989257812
4.66911003013757,-0.105344873046875,10.2998555419922,0.296881005859375
4.67153058753775,-0.15322890625,10.2759135253906,0.311246215820312
4.67395114493792,-0.148440502929687,10.2807019287109,0.3064578125
4.67630085533289,-0.1915361328125,10.2376062988281,0.32561142578125
4.67865056572785,-0.220266552734375,10.1945106689453,0.3447650390625
4.68100027612282,-0.21068974609375,10.1274730224609,0.383072265625
4.68342037605772,-0.225054956054687,10.0987426025391,0.40222587890625
4.68584047599261,-0.263362182617187,10.0939541992188,0.378283862304687
4.68826057592751,-0.263362182617187,10.0795889892578,0.339976635742188
4.69431681553796,-0.45968671875,9.75876596679687,0.51714755859375
4.70037305514842,-0.454898315429687,9.70609353027344,0.512359155273437
4.70642929475888,-0.411802685546875,9.67257470703125,0.565031591796875
4.70881949446591,-0.450109912109375,9.6917283203125,0.608127221679687
4.71120969417294,-0.469263525390625,9.63426748046875,0.603338818359375
4.71359989387997,-0.426167895507812,9.61032546386719,0.598550415039062
4.71947136591231,-0.4979939453125,9.21767639160156,0.833182177734375
4.72534283794464,-0.541089575195312,9.17936916503906,0.8044517578125
4.73121430997698,-0.493205541992187,9.16979235839844,0.876277807617187
4.73356013669139,-0.512359155273437,9.193734375,0.9193734375
4.7359059634058,-0.474051928710937,9.193734375,1.01992990722656
4.73825179012021,-0.474051928710937,9.13627353515625,0.962469067382812
4.74059755097091,-0.435744702148437,9.22246479492187,0.962469067382812
4.7429433118216,-0.383072265625,9.16021555175781,1.01035310058594
4.74528907267229,-0.349553442382812,9.12669672851562,1.04866032714844
4.74757369875737,-0.253785375976562,9.117119921875,1.05344873046875
4.74985832484244,-0.239420166015625,9.08360109863281,1.04387192382812
4.75214295092751,-0.17238251953125,9.07402429199219,0.972045874023437
4.75563914713519,0.0909796630859375,8.83460412597656,0.909796630859375
4.75913534334287,0.100556469726563,8.83460412597656,0.890643017578125
4.76263153955055,0.205901342773437,8.73404765625,0.818816967773437
4.76497316096983,0.205901342773437,8.71489404296875,0.794874951171875
4.7673147823891,0.181959326171875,8.70052883300781,0.814028564453125
4.76965640380837,0.24899697265625,8.66222160644531,0.794874951171875
4.7719969872502,0.263362182617187,8.66701000976562,0.761356127929687
4.77433757069204,0.28730419921875,8.63349118652344,0.737414111328125
4.77667815413388,0.253785375976562,8.63349118652344,0.842758984375
4.77898548914907,0.234631762695312,8.67179841308594,0.890643017578125
4.78129282416427,0.196324536132812,8.66222160644531,0.986411083984375
4.78360015917946,0.196324536132812,8.59039555664062,1.11569797363281
4.78587422276452,0.205901342773437,8.57603034667969,1.17315881347656
4.78814828634959,0.234631762695312,8.59997236328125,1.33596452636719
4.79042234993466,0.263362182617187,8.63349118652344,1.47482822265625
4.79276085259308,0.277727392578125,8.60476076660156,1.44130939941406
4.7950993552515,0.229843359375,8.6191259765625,1.40779057617187
4.79743785790992,0.301669409179687,8.66222160644531,1.34554133300781
4.79977703770593,0.32561142578125,8.63827958984375,1.34554133300781
4.80211621750194,0.330399829101562,8.72447084960938,1.4173673828125
4.80445539729795,0.464475122070312,8.71489404296875,1.37427175292969
4.80679469824196,0.488417138671875,8.68137521972656,1.29765729980469
4.80913399918597,0.536301171875,8.68616362304688,1.33596452636719
4.81147330012998,0.550666381835937,8.70052883300781,1.37427175292969
4.81377853596982,0.588973608398437,8.70531723632812,1.37906015625
4.81608377180967,0.608127221679687,8.75320126953125,1.48440502929687
4.81838900764951,0.641646044921875,8.71489404296875,1.4173673828125
4.82073048274717,0.608127221679687,8.71010563964844,1.39821376953125
4.82307195784483,0.63206923828125,8.6957404296875,1.43652099609375
4.82541343294248,0.603338818359375,8.64306799316406,1.37427175292969
4.82783196500628,0.59376201171875,8.67658681640625,1.40779057617187
4.83025049707009,0.569819995117188,8.64785639648438,1.34554133300781
4.83266902913389,0.536301171875,8.68137521972656,1.27850368652344
4.8350910761174,0.526724365234375,8.68137521972656,1.21625444335937
4.8375131231009,0.435744702148437,8.74362446289062,1.21625444335937
4.83993517008441,0.493205541992187,8.72925925292969,1.14442839355469
4.84235748730446,0.483628735351562,8.72925925292969,1.12048637695313
4.84477980452451,0.531512768554687,8.69095202636719,1.05823713378906
4.84720212174457,0.55545478515625,8.71489404296875,1.09175595703125
4.84958970008658,0.584185205078125,8.70052883300781,0.962469067382812
4.85197727842859,0.622492431640625,8.70531723632812,1.00556469726562
4.85436485677061,0.627280834960937,8.70052883300781,0.948103857421875
4.85671697531445,0.627280834960937,8.72925925292969,0.97683427734375
4.85906909385828,0.6512228515625,8.71010563964844,0.885854614257812
4.86142121240212,0.641646044921875,8.73404765625,0.895431420898437
4.86369703493901,0.588973608398437,8.6957404296875,0.86191259765625
4.86597285747591,0.565031591796875,8.657433203125,0.828393774414062
4.8682486800128,0.545877978515625,8.65264479980469,0.943315454101562
4.87044847233051,0.545877978515625,8.55687673339844,0.928950244140625
4.87264826464822,0.512359155273437,8.52335791015625,0.943315454101562
4.87484805696593,0.450109912109375,8.48026228027344,0.97683427734375
4.88058975792079,0.086191259765625,7.82425102539062,1.93451494140625
4.88633145887565,0.0143652099609375,7.7763669921875,2.03985981445312
4.89207315983052,0.0430956298828125,7.72848295898437,2.1452046875
4.8943419440102,0.009576806640625,7.68059892578125,2.08774384765625
4.89661072818989,-0.05746083984375,7.58961926269531,2.07337863769531
4.89887951236958,-0.0430956298828125,7.51300480957031,2.00155258789062
4.90107135546853,-0.0430956298828125,7.44117875976562,1.94409174804687
4.90326319856749,-0.148440502929687,7.41723674316406,1.91057292480469
4.90545504166645,-0.15322890625,7.36456430664062,1.80522805175781
4.90764612749544,-0.239420166015625,7.33583388671875,1.74776721191406
4.90983721332443,-0.277727392578125,7.26879624023437,1.78607443847656
4.91202829915343,-0.354341845703125,7.26879624023437,1.69030637207031
4.9142231722468,-0.383072265625,7.24485422363281,1.72861359863281
4.91641804534018,-0.450109912109375,7.16823977050781,1.81959326171875
4.91861291843356,-0.512359155273437,7.13472094726562,1.85790048828125
4.92081025209241,-0.541089575195312,7.06289489746094,1.91057292480469
4.92300758575127,-0.579396801757812,7.01501086425781,1.915361328125
4.92520491941012,-0.5746083984375,7.00064565429687,1.99197578125
4.92740648305719,-0.560243188476563,7.01979926757812,2.01112939453125
4.92960804670427,-0.579396801757812,7.0102224609375,2.0302830078125
4.93180961035134,-0.5746083984375,7.06289489746094,2.0302830078125
4.93741433862282,0.110133276367187,7.3932947265625,1.89620771484375
4.94301906689431,0.17238251953125,7.45554396972656,1.92014973144531
4.94862379516579,0.225054956054687,7.45554396972656,2.03985981445312
4.95088270749218,0.263362182617187,7.40765993652344,2.068590234375
4.95314161981857,0.292092602539062,7.38371791992187,2.221819140625
4.95540053214496,0.387860668945312,7.36935270996094,2.19787712402344
4.95766000686284,0.469263525390625,7.25443103027344,2.21703073730469
4.95991948158072,0.55545478515625,7.29752666015625,2.23139594726563
4.96217895629861,0.6512228515625,7.23048901367187,2.19308872070312
4.96443880493142,0.794874951171875,7.17781657714844,2.221819140625
4.96669865356423,0.794874951171875,7.16823977050781,2.21224233398438
4.96895850219704,0.967257470703125,7.09162531738281,2.25533796386719
4.97119959286544,1.02471831054687,7.01979926757812,2.375048046875
4.97344068353384,1.10133276367187,6.96233842773437,2.46602770996094
4.97568177420224,1.149216796875,6.89530078125,2.57137258300781
4.97789733066926,1.21146604003906,6.85220515136719,2.76769711914062
4.98011288713627,1.20188923339844,6.81389792480469,2.95923325195312
4.98232844360328,1.13963999023438,6.80432111816406,3.1794998046875
4.98459310104686,1.15879360351562,6.75643708496094,3.25132585449219
4.98685775849044,1.16837041015625,6.75164868164062,3.39018955078125
4.98912241593402,1.08217915039062,6.61757338867187,3.34709392089844
4.99138584117273,0.933738647460937,6.58405456542969,3.47159240722656
4.99364926641145,0.833182177734375,6.46913288574219,3.447650390625
4.99591269165017,0.723048901367187,6.41646044921875,3.50989963378906
4.99817604776996,0.531512768554687,6.26323154296875,3.59609089355469
5.00043940388975,0.387860668945312,6.1674634765625,3.66312854003906
5.00270276000954,0.2681505859375,6.10042583007812,3.68228215332031
5.00496617439756,0.0622492431640625,6.05733020019531,3.76368500976562
5.00722958878558,-0.119710083007812,5.96156213378906,3.77326181640625
5.0094930031736,-0.239420166015625,5.899312890625,3.73974299316406
5.01153218893749,-0.40222587890625,5.95198532714844,3.70622416992187
5.01357137470138,-0.560243188476563,6.02381137695312,3.65355173339844
5.01561056046527,-0.617704028320312,6.03338818359375,3.62003291015625
5.01771722105555,-0.775721337890625,6.08606062011719,3.55299526367187
5.01982388164583,-0.809240161132812,6.11957944335937,3.63439812011719
5.0219305422361,-0.909796630859375,6.25365473632812,3.54341845703125
5.02403904440624,-0.972045874023437,6.32548078613281,3.50989963378906
5.02614754657638,-0.967257470703125,6.46434448242187,3.447650390625
5.02825604874652,-0.986411083984375,6.56011254882812,3.43807358398437
5.03036428930642,-0.948103857421875,6.74686027832031,3.47638081054687
5.03247252986631,-0.909796630859375,6.90008918457031,3.3327287109375
5.03458077042621,-0.78529814453125,7.02458767089844,3.18428820800781
5.03668897615537,-0.82360537109375,7.15866296386719,3.07894333496094
5.03879718188454,-0.598550415039062,7.24964262695312,3.11725056152344
5.0409053876137,-0.430956298828125,7.49385119628906,3.15555778808594
5.04301382750086,-0.349553442382812,7.60398447265625,3.12203896484375
5.04512226738801,-0.215478149414062,7.64708010253906,3.23696064453125
5.04723070727516,-0.0143652099609375,7.738059765625,3.1794998046875
5.04939321468076,0.067037646484375,7.82425102539062,3.13640417480469
5.05155572208636,0.253785375976562,7.84340463867187,3.08852014160156
5.05371822949196,0.383072265625,7.7763669921875,3.16513459472656
5.055864920853,0.560243188476563,7.79073220214844,3.13161577148437
5.05801161221403,0.694318481445312,7.81946262207031,3.18907661132813
5.06015830357507,0.871489404296875,7.68538732910156,3.2561142578125
5.06228546187766,0.924161840820312,7.57046564941406,3.27526787109375
5.06441262018025,1.0342951171875,7.50342800292969,3.1794998046875
5.06653977848284,1.18273562011719,7.42202514648437,3.3710359375
5.06866259239344,1.25456166992187,7.30231506347656,3.50032282714844
5.07078540630403,1.42694418945312,7.11556733398437,3.53384165039062
5.07290822021462,1.4939818359375,6.94797321777344,3.54820686035156
5.07503156895594,1.56580788574219,6.80910952148437,3.68228215332031
5.07715491769726,1.64242233886719,6.63672700195312,3.81635744628906
5.07927826643858,1.76692082519531,6.58884296875,3.84508786621094
5.08146360443771,1.81480485839844,6.48349809570312,3.76847341308594
5.08364894243684,1.90578452148437,6.42124885253906,4.01747038574219
5.08583428043598,1.88184250488281,6.22013591308594,4.12760366210938
5.08803712885177,1.90578452148437,6.13394465332031,4.26167895507812
5.09023997726757,1.92014973144531,5.99986936035156,4.38138903808594
5.09244282568337,1.9536685546875,5.99029255371094,4.49152231445312
5.09464582546636,1.91057292480469,5.90888969726563,4.59207878417969
5.09684882524934,1.84353527832031,5.8610056640625,4.69742365722656
5.09905182503233,1.84353527832031,5.85621726074219,4.80276853027344
5.10125601394292,1.74776721191406,5.85621726074219,4.826710546875
5.10346020285351,1.69988317871094,5.90888969726563,4.99430466308594
5.1056643917641,1.63284553222656,5.9376201171875,4.98472785644531
5.10783663888866,1.54665427246094,5.93283171386719,4.89374819335937
5.11000888601323,1.4173673828125,5.93283171386719,5.01345827636719
5.1121811331378,1.34554133300781,6.02381137695312,4.95599743652344
5.1143646566838,1.32638771972656,6.02859978027344,4.85544096679687
5.11654818022981,1.21625444335937,6.05733020019531,4.67827004394531
5.11873170377581,1.14442839355469,6.10042583007812,4.49152231445312
5.12091838677278,1.20667763671875,6.08127221679687,4.24731374511719
5.12310506976974,1.13485158691406,6.26323154296875,4.12760366210938
5.1252917527667,1.04387192382812,6.38773002929687,4.18506450195312
5.12747783772764,1.00556469726562,6.54574733886719,4.17069929199219
5.12966392268857,0.905008227539062,6.58405456542969,4.07971962890625
5.13185000764951,0.847547387695312,6.75164868164062,4.03662399902344
5.13403574652755,0.660799658203125,6.86657036132813,3.9839515625
5.13622148540558,0.588973608398437,6.93839641113281,4.04620080566406
5.13840722428362,0.507570751953125,7.03895288085937,4.03183559570313
5.14055851085046,0.4213794921875,7.13950935058594,3.99831677246094
5.1427097974173,0.32561142578125,7.19697019042969,3.92649072265625
5.14486108398415,0.339976635742188,7.12993254394531,4.01268198242188
5.14704130192034,0.277727392578125,7.24964262695312,3.94085593261719
5.14922151985654,0.253785375976562,7.37892951660156,3.92170231933594
5.15140173779274,0.167594116210937,7.3549875,3.85466467285156
5.1535776738279,0.225054956054687,7.44596716308594,3.82593425292969
5.15575360986306,0.177170922851562,7.39808312988281,3.78762702636719
5.15792954589821,0.253785375976562,7.50821640625,3.81156904296875
5.16010447005186,0.28730419921875,7.46512077636719,3.88339509277344
5.1622793942055,0.354341845703125,7.48427438964844,3.84508786621094
5.16445431835915,0.411802685546875,7.54173522949219,3.91212551269531
5.16662875922286,0.493205541992187,7.55610043945312,3.8690298828125
5.16880320008658,0.560243188476563,7.51300480957031,3.81635744628906
5.17097764095029,0.63206923828125,7.52258161621094,3.70622416992187
5.17312376784916,0.689530078125,7.3932947265625,3.62960971679687
5.17526989474803,0.761356127929687,7.36456430664062,3.58172568359375
5.17741602164691,0.78529814453125,7.33583388671875,3.71101257324219
5.17956316889083,0.794874951171875,7.20654699707031,3.81156904296875
5.18171031613475,0.799663354492188,7.12993254394531,3.8690298828125
5.18385746337868,0.799663354492188,7.03416447753906,4.09408483886719
5.1859666332463,0.799663354492188,6.99585725097656,4.367023828125
5.18807580311392,0.780509741210937,6.88572397460938,4.55377155761719
5.19018497298154,0.78529814453125,6.75164868164062,4.46758029785156
5.19229317659482,0.871489404296875,6.49786330566406,4.75488449707031
5.1944013802081,0.981622680664062,6.31590397949219,4.903325
5.19650958382138,1.14442839355469,6.17225187988281,4.97515104980469
5.19861709065732,1.23540805664062,6.07648381347656,4.91290180664063
5.20072459749325,1.40779057617187,6.0908490234375,4.82192214355469
5.20283210432919,1.4939818359375,6.052541796875,4.80755693359375
5.2049399225258,1.70945998535156,5.90410129394531,5.05176550292969
5.20704774072242,1.90099611816406,5.9376201171875,5.133168359375
5.20915555891903,2.00155258789062,5.95677373046875,5.1714755859375
5.21133626155575,2.13562788085937,5.91846650390625,5.20499440917969
5.21351696419247,2.23139594726563,6.01902297363281,5.33906970214844
5.21569766682919,2.25054956054688,6.18661708984375,5.26245524902344
5.21781059467207,2.27927998046875,6.22013591308594,5.286397265625
5.21992352251495,2.29843359375,6.30153876953125,5.38695373535156
5.22203645035783,2.28885678710938,6.52180532226562,5.46356818847656
5.22407887147328,2.23618435058594,6.63193859863281,5.37737692871094
5.22612129258873,2.15956989746094,6.74686027832031,5.37737692871094
5.22816371370418,2.09732065429687,6.87135876464844,5.37258852539062
5.23020545817033,2.00634099121094,7.02458767089844,5.48751020507812
5.23224720263647,1.92493813476562,7.19218178710937,5.4779333984375
5.23428894710262,1.82917006835937,7.34541069335937,5.40610734863281
5.23633090841989,1.73819040527344,7.59919606933594,5.41089575195312
5.23837286973716,1.6472107421875,7.76679018554687,5.3247044921875
5.24041483105444,1.53707746582031,7.97747993164062,5.31033928222656
5.2425169335935,1.46046301269531,8.1594392578125,5.32949289550781
5.24461903613256,1.40300217285156,8.26478413085937,5.24330163574219
5.24672113867162,1.17794721679687,8.43237824707031,5.08528432617187
5.2487886835935,1.0342951171875,8.66701000976562,4.77882651367187
5.25085622851538,0.962469067382812,8.67179841308594,4.46758029785156
5.25292377343725,0.866701000976562,8.63349118652344,4.75009609375
5.25495301388864,0.82360537109375,8.59518395996094,4.60644399414062
5.25698225434003,0.684741674804688,8.45153186035156,4.36223542480469
5.25901149479142,0.545877978515625,8.40843623046875,4.29519777832031
5.26103718576364,0.521935961914062,8.42280144042969,4.26167895507812
5.26306287673586,0.430956298828125,8.35576379394531,4.19464130859375
5.26508856770808,0.474051928710937,8.3892826171875,4.19942971191406
5.26711602957874,0.45968671875,8.30787976074219,4.07493122558594
5.2691434914494,0.330399829101562,8.2743609375,3.99352836914062
5.27117095332006,0.349553442382812,8.22168850097656,3.91691391601562
5.27326680802926,0.301669409179687,8.17859287109375,3.93606752929687
5.27536266273846,0.316034619140625,8.13070883789062,4.00789357910156
5.27745851744766,0.339976635742188,8.14028564453125,3.96479794921875
5.27955696529922,0.339976635742188,8.13070883789062,4.19464130859375
5.28165541315079,0.282515795898438,8.18816967773437,4.34787021484375
5.28375386100235,0.373495458984375,8.17380446777344,4.51067592773437
5.28585341503881,0.445321508789062,8.13549724121094,4.75488449707031
5.28795296907526,0.560243188476563,8.12592043457031,5.18105239257812
5.29005252311172,0.646434448242187,8.18816967773437,5.54497104492187
5.29215257264514,0.837970581054687,8.21690009765625,6.02859978027344
5.29425262217856,0.986411083984375,8.25520732421875,6.61757338867187
5.29635267171198,1.18273562011719,8.22168850097656,6.88093557128906
5.29845300754098,1.36948334960938,8.29351455078125,7.19218178710937
5.30055334336997,1.62805712890625,8.18816967773437,7.34062229003906
5.30265367919896,1.82438166503906,8.22647690429687,7.44596716308594
5.30480756976971,2.01112939453125,8.22168850097656,7.4699091796875
5.30696146034046,2.20266552734375,8.15465085449219,7.39808312988281
5.30911535091121,2.34152922363281,8.18816967773437,7.33583388671875
5.31122701736086,2.43250888671875,8.18338127441406,7.2400658203125
5.31333868381051,2.38462485351562,8.24563051757812,7.17781657714844
5.31545035026017,2.34631762695312,8.21690009765625,7.18739338378906
5.31756171809871,2.18830031738281,8.23126530761719,7.04374128417969
5.31967308593725,2.00155258789062,8.24084211425781,6.91445439453125
5.32178445377579,1.838746875,8.28393774414062,6.75164868164062
5.3238960742185,1.5705962890625,8.26957253417969,6.665457421875
5.32600769466121,1.35511813964844,8.29351455078125,6.71334145507812
5.32811931510392,1.13963999023438,8.33661018066406,6.68939943847656
5.3301585960284,0.876277807617187,8.44195505371094,6.54095893554687
5.33219787695288,0.78529814453125,8.5425115234375,6.42603725585937
5.33423715787736,0.588973608398437,8.59039555664062,6.46913288574219
5.33634394520375,0.378283862304687,8.59997236328125,6.51701691894531
5.33845073253014,0.277727392578125,8.73404765625,6.61278498535156
5.34055751985653,0.143652099609375,8.82023891601562,6.59363137207031
5.34266759776452,0.067037646484375,8.93994899902344,6.5505357421875
5.3447776756725,-0.009576806640625,8.90643017578125,6.4356140625
5.34688775358049,-0.086191259765625,9.08838950195312,6.37815322265625
5.34899807986087,-0.0909796630859375,9.117119921875,6.10042583007812
5.35110840614125,-0.138863696289063,9.16979235839844,6.18661708984375
5.35321873242163,-0.0814028564453125,9.2320416015625,6.1674634765625
5.35525898600237,-0.138863696289063,9.40442412109375,6.21055910644531
5.3572992395831,-0.110133276367187,9.45230815429687,6.15788666992187
5.35933949316383,-0.067037646484375,9.40921252441406,6.205770703125
5.36137922374108,0.0,9.44273134765625,6.44040246582031
5.36341895431834,0.0718260498046875,9.52892260742187,6.47870969238281
5.3654586848956,0.124498486328125,9.54807622070313,6.57926616210937
5.36756620648848,0.158017309570312,9.39963571777344,6.70855305175781
5.36967372808136,0.263362182617187,9.44273134765625,6.71812985839844
5.37178124967424,0.330399829101562,9.31823286132813,6.67503422851562
5.37382070811608,0.349553442382812,9.22246479492187,6.74686027832031
5.37586016655792,0.598550415039062,9.193734375,6.92881960449219
5.37789962499976,0.679953271484375,9.06923588867187,6.95755002441406
5.37993725900584,0.885854614257812,9.16979235839844,7.02937607421875
5.38197489301191,1.03908352050781,9.117119921875,7.05810649414062
5.38401252701799,1.17315881347656,9.18894597167969,7.41723674316406
5.38605111414907,1.34554133300781,9.19852277832031,7.51300480957031
5.38808970128014,1.56580788574219,9.31823286132813,7.56088884277344
5.39012828841122,1.61369191894531,9.34696328125,7.78594379882812
5.39216688997372,1.74297880859375,9.4618849609375,7.85776984863281
5.39420549153622,1.93451494140625,9.51455739746094,7.87213505859375
5.39624409309872,2.00634099121094,9.59596025390625,7.87213505859375
5.398344558485,2.13562788085937,9.730035546875,7.83382783203125
5.40044502387129,2.17872351074219,9.87368764648437,7.80509741210937
5.40254548925757,2.29843359375,10.0652237792969,7.81946262207031
5.40464731320506,2.3367408203125,10.1418382324219,7.94874951171875
5.40674913715254,2.41814367675781,10.1801454589844,8.36055219726562
5.40885096110002,2.44208569335937,10.2567599121094,8.56645354003906
5.41095307025801,2.55221896972656,10.2232410888672,8.61433757324219
5.41305517941599,2.50433493652344,10.3908352050781,8.61433757324219
5.41515728857398,2.54743056640625,10.4339308349609,8.48505068359375
5.41724890483917,2.5665841796875,10.6015249511719,8.47068547363281
5.41934052110436,2.49475812988281,10.7834842773437,8.48983908691406
5.42143213736955,2.49475812988281,10.9510783935547,8.49462749023438
5.42348193343075,2.26491477050781,11.1904985595703,8.36055219726562
5.42553172949194,2.09732065429687,11.3293622558594,8.31745656738281
5.42758152555314,1.94409174804687,11.5113215820312,8.25041892089844
5.42965070339602,1.69030637207031,11.6118780517578,8.15465085449219
5.4317198812389,1.455674609375,11.8129909912109,8.25041892089844
5.43378905908178,1.24019645996094,12.0093155273437,8.18816967773437
5.43582125488256,0.962469067382812,12.1912748535156,8.43716665039062
5.43785345068334,0.876277807617187,12.3732341796875,8.53772312011719
5.43988564648412,0.641646044921875,12.6461731689453,8.76756647949219
5.44191715532744,0.536301171875,12.8903817382812,8.67179841308594
5.44394866417075,0.569819995117188,12.9669961914062,8.69095202636719
5.44598017301407,0.603338818359375,13.2064163574219,8.6191259765625
5.44801163758655,0.646434448242187,13.4793553466797,8.47547387695312
5.45004310215903,0.82360537109375,13.5799118164062,8.37970581054688
5.45207456673152,0.97683427734375,13.8336971923828,8.44195505371094
5.45410512906876,1.24498486328125,13.8863696289062,8.72447084960938
5.456135691406,1.35990654296875,14.0779057617187,8.89685336914062
5.45816625374324,1.62326872558594,14.1497318115234,8.94473740234375
5.46034161083959,1.92972653808594,14.2885955078125,9.18894597167969
5.46251696793595,2.07816704101562,14.3747867675781,9.39005891113281
5.4646923250323,2.27927998046875,14.5184388671875,9.45230815429687
5.46686734082006,2.39899006347656,14.7243402099609,9.62947907714844
5.46904235660782,2.60489140625,14.8248966796875,10.0221281494141
5.47121737239558,2.68629426269531,14.9254531494141,10.4099888183594
5.47344257250047,2.82994636230469,15.093047265625,10.6589857910156
5.47566777260536,2.99754047851562,15.1888153320312,10.9989624267578
5.47789297271025,3.18907661132813,15.4617543212891,11.2000753662109
5.48003145685015,3.19865341796875,15.6485020507812,11.2048637695312
5.48216994099005,3.4093431640625,15.7586353271484,11.1904985595703
5.48430842512995,3.4859576171875,15.8783454101562,11.1138841064453
5.48649547450061,3.54341845703125,16.08903515625,11.0803652832031
5.48868252387127,3.61524450683594,16.2087452392578,10.9893856201172
5.49086957324193,3.61524450683594,16.3045133056641,11.0229044433594
5.4930199071178,3.49553442382812,16.3859161621094,11.1474029296875
5.49517024099367,3.54820686035156,16.4960494384766,11.262324609375
5.49732057486954,3.45243879394531,16.5199914550781,11.5352635986328
5.499432625054,3.4093431640625,16.4290117919922,11.7363765380859
5.50154467523847,3.37582434082031,16.5535102783203,11.9231242675781
5.50365672542293,3.31836350097656,16.6349131347656,12.0093155273437
5.50893275160023,2.54743056640625,15.9980554931641,10.6829278076172
5.51420877777753,2.44687409667969,16.0219975097656,10.5680061279297
5.51948480395483,2.375048046875,15.8448265869141,10.3716815917969
5.52152527986629,2.35110603027344,15.7011744873047,10.4435076416016
5.52356575577775,2.4133552734375,15.7730005371094,10.5871597412109
5.52560623168921,2.35589443359375,15.7969425537109,10.8170031005859
5.53070189119441,2.99754047851562,15.9597482666016,10.6733510009766
5.53579755069962,3.01190568847656,15.9836902832031,10.8074262939453
5.54089321020483,3.05021291503906,15.9597482666016,10.8936175537109
5.54293126641143,3.09330854492187,15.9884786865234,10.9319247802734
5.54496932261803,3.13161577148437,15.9789018798828,10.8217915039062
5.54700737882463,3.10767375488281,15.9262294433594,10.7260234375
5.55220193570939,2.71023627929688,14.7722242431641,9.87847604980469
5.55739649259416,2.69108266601562,14.5902649169922,9.83538041992187
5.56259104947892,2.67192905273437,14.4609780273437,9.81143840332031
5.5646869069008,2.73896669921875,14.3652099609375,9.67257470703125
5.56678276432267,2.72460148925781,14.2550766845703,9.40921252441406
5.56887862174455,2.81079274902344,14.1688854248047,9.29907924804687
5.57097483485219,2.72460148925781,14.1114245849609,9.16979235839844
5.57307104795983,2.78206232910156,14.0108681152344,8.99740983886719
5.57516726106746,2.75333190917969,13.8863696289062,8.84418093261719
5.57726417458743,2.76290871582031,13.7618711425781,8.77714328613281
5.57936108810739,2.681505859375,13.6996218994141,8.69095202636719
5.58145800162736,2.63362182617187,13.5463929931641,8.71489404296875
5.58351218557375,2.60010300292969,13.407529296875,8.82502731933594
5.58556636952015,2.55221896972656,13.3644336669922,8.80108530273437
5.58762055346655,2.48039291992187,13.2830308105469,8.90164177246094
5.58972739743357,2.40377846679687,13.2255699707031,8.86812294921875
5.59183424140058,2.29364519042969,13.1298019042969,8.60954916992188
5.5939410853676,2.24576115722656,12.9765729980469,8.45632026367188
5.59604893519399,2.20266552734375,12.8951701416016,8.26957253417969
5.59815678502038,2.09253225097656,12.8520745117187,8.20732329101562
5.60026463484677,2.06380183105469,12.7658832519531,8.07803640136719
5.60237306095354,1.97761057128906,12.641384765625,8.00142194824219
5.60448148706031,1.92972653808594,12.5551935058594,7.97269152832031
5.60658991316708,1.85311208496094,12.4833674560547,7.99184514160156
5.60869781155033,1.78607443847656,12.3875993896484,8.07324799804687
5.61080570993357,1.71903679199219,12.3253501464844,8.13070883789062
5.61291360831682,1.69988317871094,12.2200052734375,8.06367119140625
5.61498857625302,1.6472107421875,12.1338140136719,8.07803640136719
5.61706354418922,1.56580788574219,12.028469140625,8.0062103515625
5.61913851212541,1.53707746582031,12.0332575439453,7.94396110839844
5.62124801185415,1.50834704589844,11.9327010742188,7.79073220214844
5.62335751158288,1.47482822265625,11.8560866210938,7.71890615234375
5.62546701131161,1.49877023925781,11.7411649414062,7.6231380859375
5.6275788033038,1.40779057617187,11.7028577148437,7.49385119628906
5.62969059529598,1.37427175292969,11.6406084716797,7.36456430664062
5.63180238728817,1.36469494628906,11.6118780517578,7.32146867675781
5.63391438213409,1.30723410644531,11.5879360351562,7.25921943359375
5.63602637698001,1.33117612304687,11.49216796875,7.26400783691406
5.63813837182593,1.27371528320312,11.5017447753906,7.19697019042969
5.64021509790015,1.28329208984375,11.5017447753906,7.16823977050781
5.64229182397437,1.27850368652344,11.415553515625,7.14429775390625
5.64436855004859,1.26892687988281,11.4011883056641,7.17302817382812
5.64637104109677,1.40779057617187,11.4490723388672,7.14429775390625
5.64837353214495,1.39342536621094,11.4299187255859,7.03416447753906
5.65037602319313,1.47003981933594,11.3820346923828,6.89530078125
5.65240613886153,1.52750065917969,11.3628810791016,6.75164868164062
5.65443625452993,1.47961662597656,11.3533042724609,6.60320817871094
5.65646637019833,1.48440502929687,11.3485158691406,6.4739212890625
5.65849787453861,1.51313544921875,11.3245738525391,6.4739212890625
5.66052937887889,1.43652099609375,11.2910550292969,6.49307490234375
5.66256088321917,1.49877023925781,11.3533042724609,6.56490095214844
5.66459496709504,1.4939818359375,11.3293622558594,6.62236179199219
5.66662905097091,1.50834704589844,11.3149970458984,6.71334145507812
5.66866313484677,1.48440502929687,11.3341506591797,6.70855305175781
5.67069834176952,1.4939818359375,11.3389390625,6.71812985839844
5.67273354869226,1.54186586914062,11.3676694824219,6.71334145507812
5.674768755615,1.58496149902344,11.4107651123047,6.5505357421875
5.6768672408038,1.67594116210937,11.4107651123047,6.31590397949219
5.67896572599261,1.63284553222656,11.4730143554687,6.14830986328125
5.68106421118141,1.63284553222656,11.6214548583984,6.14352145996094
5.68316374102081,1.66157595214844,11.6693388916016,6.15788666992187
5.68526327086022,1.59932670898438,11.8369330078125,6.25844313964844
5.68736280069963,1.55623107910156,11.9518546875,6.37336481933594
5.68944552126712,1.51792385253906,12.0428343505859,6.48349809570312
5.69152824183461,1.46525141601562,12.1529676269531,6.57926616210937
5.6936109624021,1.40779057617187,12.1721212402344,6.61757338867187
5.69562397333418,1.2641384765625,12.2152168701172,6.68461103515625
5.69763698426625,1.27371528320312,12.2391588867187,6.75164868164062
5.69964999519832,1.22583125,12.4259066162109,6.89051237792969
5.70161287182593,1.21625444335937,12.5312514892578,6.88572397460938
5.70357574845353,1.12527478027344,12.6365963623047,6.87614716796875
5.70553862508114,1.149216796875,12.641384765625,6.90008918457031
5.70750369029381,1.15879360351562,12.7371528320312,6.68461103515625
5.70946875550649,1.17315881347656,12.7371528320312,6.48828649902344
5.71143382071916,1.21146604003906,12.7898252685547,6.24886633300781
5.71346046481638,1.20188923339844,12.8951701416016,6.08606062011719
5.71548710891361,1.22104284667969,13.0675526611328,5.9376201171875
5.71751375301083,1.22104284667969,13.1345903076172,5.99029255371094
5.71961732473392,1.16837041015625,13.2159931640625,6.052541796875
5.72172089645701,1.16358200683594,13.3596452636719,6.11479104003906
5.7238244681801,1.1109095703125,13.3931640869141,6.09563742675781
5.72592641924347,1.05823713378906,13.4027408935547,6.02859978027344
5.72802837030684,1.06302553710937,13.4889321533203,5.99508095703125
5.73013032137021,0.97683427734375,13.5799118164062,5.86579406738281
5.73223114287628,0.90021982421875,13.5990654296875,5.73171877441406
5.73433196438236,0.828393774414062,13.6661030761719,5.52581743164062
5.73643278588844,0.76614453125,13.8193319824219,5.49708701171875
5.73853069658722,0.699106884765625,14.0156565185547,5.47314499511719
5.740628607286,0.665588061523437,14.1210013916016,5.45877978515625
5.74272651798479,0.588973608398437,14.1210013916016,5.61200869140625
5.7448036984454,0.521935961914062,14.2071926513672,5.72214196777344
5.74688087890601,0.397437475585937,14.0731173583984,5.68862314453125
5.74895805936662,0.3064578125,14.1114245849609,5.77002600097656
5.75100790535458,0.220266552734375,13.9773492919922,5.9376201171875
5.75305775134254,0.076614453125,14.0826941650391,6.00465776367187
5.75510759733049,-0.01915361328125,14.0300217285156,6.11000263671875
5.75715051665558,-0.143652099609375,13.9821376953125,6.00465776367187
5.75919343598067,-0.205901342773437,13.8384855957031,5.99029255371094
5.76123635530575,-0.215478149414062,13.7906015625,6.01902297363281
5.76553462396895,-0.521935961914062,13.5511813964844,6.26801994628906
5.76983289263215,-0.569819995117188,13.5272393798828,6.33505759277344
5.77413116129534,-0.6512228515625,13.4458365234375,6.4356140625
5.77632171902104,-0.627280834960937,13.4745669433594,6.51701691894531
5.77851227674673,-0.636857641601562,13.3979524902344,6.44519086914062
5.78070283447243,-0.684741674804688,13.3883756835937,6.3206923828125
5.78289491183788,-0.622492431640625,13.3644336669922,6.29196196289062
5.78508698920333,-0.67037646484375,13.3069728271484,6.358999609375
5.78727906656879,-0.493205541992187,13.1728975341797,6.33984599609375
5.78943743462434,-0.426167895507812,13.0531874511719,6.44519086914062
5.7915958026799,-0.292092602539062,13.0005150146484,6.41167204589844
5.79375417073545,-0.253785375976562,13.0962830810547,6.42603725585937
5.79587835015168,-0.15322890625,13.1681091308594,6.54095893554687
5.79800252956791,-0.05746083984375,13.1728975341797,6.50744011230469
5.80012670898414,-0.0383072265625,13.1537439208984,6.49786330566406
5.80225058561175,0.0047884033203125,13.2878192138672,6.35421120605469
5.80437446223935,0.028730419921875,13.4410481201172,6.20098229980469
5.80649833886695,0.105344873046875,13.7427175292969,5.92804331054688
5.8086221934134,0.009576806640625,13.9773492919922,5.71735356445312
5.81074604795984,0.028730419921875,14.2311346679687,5.42526096191406
5.81286990250628,0.100556469726563,14.6573025634766,5.16668718261719
5.81820629635936,-0.0335188232421875,20.4704241943359,2.72938989257813
5.82354269021244,-0.028730419921875,21.222203515625,2.42772048339844
5.82887908406552,0.0383072265625,22.0936929199219,2.07816704101562
5.83098668866621,-0.0430956298828125,22.7640693847656,1.82438166503906
5.83309429326691,-0.138863696289063,23.1184112304687,1.58974990234375
5.83520189786761,-0.181959326171875,23.4488110595703,1.62805712890625
5.83730969170441,-0.277727392578125,23.5876747558594,1.89620771484375
5.83941748554121,-0.354341845703125,23.8989209716797,2.27449157714844
5.84152527937802,-0.59376201171875,23.9132861816406,2.45645090332031
5.84363324574087,-0.814028564453125,24.0425730712891,2.47560451660156
5.84574121210371,-1.07739074707031,23.8318833251953,2.30801040039062
5.84784917846656,-1.31681091308594,23.8175181152344,1.96803376464844
5.84995835674347,-1.54186586914062,24.0090542480469,1.32638771972656
5.85206753502038,-1.73819040527344,23.9132861816406,0.47884033203125
5.85417671329729,-1.81001645507812,23.9084977783203,-0.3064578125
5.8562838087834,-1.88184250488281,23.673866015625,-1.04387192382812
5.85839090426952,-1.97282216796875,23.2524865234375,-1.40300217285156
5.86049799975563,-1.74776721191406,22.5868984619141,-1.35032973632813
5.8626008429631,-1.6472107421875,21.7249858642578,-1.29765729980469
5.86470368617056,-1.24498486328125,20.7194211669922,-1.04387192382812
5.86680652937802,-1.42694418945312,19.3595146240234,-1.05823713378906
5.86890817390927,-1.44609780273437,17.851167578125,-0.924161840820312
5.87100981844052,-0.876277807617187,16.2997249023437,-0.565031591796875
5.87311146297177,-0.756567724609375,14.6381489501953,-0.493205541992187
5.8752132759058,-0.32561142578125,12.9334773681641,-0.4213794921875
5.87731508883982,0.100556469726563,11.2814782226562,-0.627280834960937
5.87941690177385,0.05746083984375,9.42836613769531,-0.732625708007812
5.88151959307159,0.100556469726563,7.32625708007812,-0.474051928710937
5.88362228436934,0.0718260498046875,5.19541760253906,0.201112939453125
5.88572497566708,-0.086191259765625,3.03105930175781,1.08217915039062
5.88783481084503,-0.502782348632812,1.22104284667969,1.94888015136719
5.88994464602298,-0.699106884765625,-0.244208569335937,2.75333190917969
5.89205448120093,-1.05344873046875,-1.44609780273437,3.62003291015625
5.89414816837541,-1.38863696289062,-2.53785375976562,4.31913979492187
