timestamp,accel_x (m/s2),accel_y (m/s2),accel_z (m/s2)
0.0034925687934025,-0.1915361328125,9.93593688964844,-0.74699091796875
0.006985137586805,-0.17238251953125,9.90720646972656,-0.70868369140625
0.0104777063802075,-0.177170922851562,9.94551369628906,-0.770932934570312
0.0174659657118047,-0.196324536132812,9.97903251953125,-0.76614453125
0.0244542250434018,-0.244208569335937,9.95509050292969,-0.794874951171875
0.031442484374999,-0.234631762695312,9.95987890625,-0.871489404296875
0.0384329350043373,-0.196324536132812,9.95030209960937,-0.82360537109375
0.0454233856336757,-0.177170922851562,9.93114848632812,-0.794874951171875
0.052413836263014,-0.1915361328125,9.91678327636719,-0.76614453125
0.0594761914062426,-0.234631762695312,9.94072529296875,-0.790086547851562
0.0665385465494713,-0.138863696289063,9.91678327636719,-0.871489404296875
0.0736009016926999,-0.181959326171875,9.95030209960937,-0.790086547851562
0.0806709138454759,-0.15322890625,9.93114848632812,-0.761356127929687
0.0877409259982519,-0.148440502929687,9.94072529296875,-0.76614453125
0.0948109381510278,-0.158017309570312,9.92636008300781,-0.790086547851562
0.101884465820298,-0.17238251953125,9.92636008300781,-0.756567724609375
0.108957993489568,-0.186747729492187,9.97903251953125,-0.799663354492188
0.116031521158838,-0.15322890625,9.96466730957031,-0.723048901367187
0.123107425130191,-0.15322890625,9.94551369628906,-0.74699091796875
0.130183329101544,-0.158017309570312,9.97424411621094,-0.694318481445312
0.137259233072896,-0.162805712890625,9.95030209960937,-0.675164868164063
0.14433765375432,-0.09576806640625,9.95509050292969,-0.770932934570312
0.151416074435744,-0.143652099609375,9.94072529296875,-0.699106884765625
0.158494495117168,-0.143652099609375,9.91678327636719,-0.718260498046875
0.165635260633659,-0.129286889648437,9.95509050292969,-0.617704028320312
0.172776026150151,-0.167594116210937,9.91678327636719,-0.699106884765625
0.179916791666642,-0.143652099609375,9.95030209960937,-0.713472094726562
0.187063839192682,-0.13407529296875,9.9215716796875,-0.74699091796875
0.194210886718722,-0.17238251953125,9.95030209960937,-0.723048901367187
0.201357934244761,-0.138863696289063,9.92636008300781,-0.694318481445312
0.208509191189205,-0.158017309570312,9.95509050292969,-0.70868369140625
0.21566044813365,-0.143652099609375,9.93114848632812,-0.684741674804688
0.222811705078094,-0.158017309570312,9.94551369628906,-0.675164868164063
0.229967982747363,-0.124498486328125,9.92636008300781,-0.718260498046875
0.237124260416633,-0.1149216796875,9.98860932617187,-0.689530078125
0.244280538085903,-0.148440502929687,9.93114848632812,-0.689530078125
0.251441701497361,-0.138863696289063,9.95987890625,-0.689530078125
0.258602864908819,-0.148440502929687,9.96945571289062,-0.732625708007812
0.265764028320277,-0.162805712890625,9.98382092285156,-0.737414111328125
0.272982114908819,-0.143652099609375,9.93114848632812,-0.723048901367187
0.280200201497361,-0.15322890625,9.96466730957031,-0.751779321289062
0.287418288085902,-0.158017309570312,9.92636008300781,-0.67037646484375
0.294644932400137,-0.196324536132812,9.97903251953125,-0.70868369140625
0.301871576714371,-0.143652099609375,9.94551369628906,-0.78529814453125
0.309098221028606,-0.148440502929687,9.94072529296875,-0.770932934570312
0.316330506510376,-0.143652099609375,9.97903251953125,-0.70868369140625
0.323562791992146,-0.17238251953125,9.96466730957031,-0.67037646484375
0.330795077473915,-0.186747729492187,9.95987890625,-0.78529814453125
0.33803138910586,-0.162805712890625,9.98382092285156,-0.713472094726562
0.345267700737805,-0.17238251953125,9.96466730957031,-0.751779321289062
0.352504012369749,-0.158017309570312,9.95987890625,-0.737414111328125
0.359744344292492,-0.177170922851562,9.90720646972656,-0.684741674804688
0.366984676215234,-0.162805712890625,9.94551369628906,-0.742202514648437
0.374225008137977,-0.181959326171875,9.97424411621094,-0.718260498046875
0.381520148437455,-0.129286889648437,9.92636008300781,-0.751779321289062
0.388815288736933,-0.162805712890625,9.95509050292969,-0.737414111328125
0.396110429036412,-0.13407529296875,9.90720646972656,-0.70868369140625
0.403407891710022,-0.138863696289063,9.9215716796875,-0.699106884765625
0.410705354383632,-0.15322890625,9.89284125976562,-0.761356127929687
0.418002817057243,-0.148440502929687,9.89762966308594,-0.723048901367187
0.425301095052033,-0.162805712890625,9.94551369628906,-0.751779321289062
0.432599373046822,-0.17238251953125,9.93114848632812,-0.737414111328125
0.439897651041612,-0.181959326171875,9.90720646972656,-0.742202514648437
0.447196671223902,-0.162805712890625,9.95509050292969,-0.751779321289062
0.454495691406192,-0.143652099609375,9.93593688964844,-0.742202514648437
0.461794711588482,-0.1149216796875,9.94072529296875,-0.780509741210937
0.469095921874938,-0.186747729492187,9.95509050292969,-0.70868369140625
0.476397132161395,-0.17238251953125,9.94072529296875,-0.703895288085937
0.483698342447852,-0.15322890625,9.90241806640625,-0.761356127929687
0.491071141058962,-0.162805712890625,9.94072529296875,-0.770932934570312
0.498443939670073,-0.158017309570312,9.92636008300781,-0.718260498046875
0.505816738281183,-0.124498486328125,9.94072529296875,-0.713472094726562
0.513191390624932,-0.15322890625,9.94551369628906,-0.751779321289062
0.520566042968682,-0.13407529296875,9.97424411621094,-0.775721337890625
0.527940695312431,-0.158017309570312,9.96466730957031,-0.814028564453125
0.53531664735236,-0.17238251953125,9.93593688964844,-0.742202514648437
0.542692599392289,-0.13407529296875,9.92636008300781,-0.737414111328125
0.550068551432219,-0.167594116210937,9.91678327636719,-0.799663354492188
0.557598026909647,-0.148440502929687,9.92636008300781,-0.737414111328125
0.565127502387076,-0.143652099609375,9.90241806640625,-0.7278373046875
0.572656977864504,-0.148440502929687,9.91678327636719,-0.660799658203125
0.580191209418324,-0.181959326171875,9.93114848632812,-0.718260498046875
0.587725440972143,-0.17238251953125,9.91678327636719,-0.732625708007812
0.595259672525962,-0.158017309570312,9.94072529296875,-0.718260498046875
0.60279789702683,-0.181959326171875,9.94551369628906,-0.713472094726562
0.610336121527697,-0.177170922851562,9.93114848632812,-0.703895288085937
0.617874346028565,-0.138863696289063,9.95987890625,-0.63206923828125
0.625414374782904,-0.17238251953125,9.94072529296875,-0.684741674804688
0.632954403537243,-0.177170922851562,9.91678327636719,-0.756567724609375
0.640494432291582,-0.177170922851562,9.93114848632812,-0.737414111328125
0.648035620117102,-0.220266552734375,9.94551369628906,-0.775721337890625
0.655576807942621,-0.201112939453125,9.94072529296875,-0.684741674804688
0.66311799576814,-0.196324536132812,9.95509050292969,-0.679953271484375
0.670660276150083,-0.143652099609375,9.95509050292969,-0.699106884765625
0.678202556532026,-0.167594116210937,9.93114848632812,-0.7278373046875
0.685744836913969,-0.196324536132812,9.95509050292969,-0.78529814453125
0.716076386284627,-0.181959326171875,9.94551369628906,-0.761356127929687
0.746407935655284,-0.15322890625,9.9981861328125,-0.74699091796875
0.776739485025942,-0.162805712890625,9.95509050292969,-0.732625708007812
0.784349597222122,-0.181959326171875,10.0029745361328,-0.723048901367187
0.791959709418303,-0.17238251953125,10.0221281494141,-0.751779321289062
0.799569821614483,-0.167594116210937,10.0125513427734,-0.737414111328125
0.807183650499032,-0.177170922851562,9.98860932617187,-0.775721337890625
0.814797479383581,-0.158017309570312,9.99339772949219,-0.751779321289062
0.82241130826813,-0.167594116210937,9.96466730957031,-0.780509741210937
0.830028554904414,-0.148440502929687,9.95030209960937,-0.770932934570312
0.837645801540698,-0.13407529296875,9.96945571289062,-0.852335791015625
0.845263048176982,-0.158017309570312,9.94072529296875,-0.770932934570312
0.852881633680454,-0.143652099609375,9.99339772949219,-0.76614453125
0.860500219183926,-0.17238251953125,9.93593688964844,-0.790086547851562
0.868118804687398,-0.124498486328125,9.95987890625,-0.756567724609375
0.875805820312398,-0.15322890625,9.98382092285156,-0.814028564453125
0.883492835937398,-0.148440502929687,9.95509050292969,-0.790086547851562
0.891179851562399,-0.177170922851562,9.93593688964844,-0.82360537109375
0.898869677951287,-0.148440502929687,9.92636008300781,-0.790086547851562
0.906559504340175,-0.17238251953125,9.96466730957031,-0.82360537109375
0.914249330729064,-0.205901342773437,9.97424411621094,-0.7278373046875
0.921940981987743,-0.17238251953125,9.97424411621094,-0.76614453125
0.929632633246423,-0.162805712890625,9.96466730957031,-0.837970581054687
0.937324284505102,-0.138863696289063,9.97903251953125,-0.8044517578125
0.94501746527767,-0.167594116210937,9.96466730957031,-0.799663354492188
0.952710646050238,-0.148440502929687,9.96466730957031,-0.809240161132812
0.960403826822805,-0.17238251953125,9.99339772949219,-0.770932934570312
0.968098465386172,-0.177170922851562,9.95509050292969,-0.809240161132812
0.975793103949539,-0.15322890625,9.96945571289062,-0.790086547851562
0.983487742512906,-0.17238251953125,9.99339772949219,-0.809240161132812
0.99125317100683,-0.138863696289063,9.9981861328125,-0.780509741210937
0.999018599500753,-0.143652099609375,9.95987890625,-0.74699091796875
1.00678402799468,-0.158017309570312,9.97424411621094,-0.7278373046875
1.01455237727853,-0.186747729492187,9.97424411621094,-0.76614453125
1.02232072656238,-0.177170922851562,9.95030209960937,-0.78529814453125
1.03008907584623,-0.17238251953125,9.95987890625,-0.679953271484375
1.03785997981759,-0.143652099609375,9.96945571289062,-0.718260498046875
1.04563088378894,-0.1915361328125,9.92636008300781,-0.7278373046875
1.05340178776029,-0.148440502929687,9.96945571289062,-0.732625708007812
1.06117418587227,-0.162805712890625,9.93593688964844,-0.790086547851562
1.06894658398425,-0.181959326171875,9.94551369628906,-0.756567724609375
1.07671898209623,-0.1915361328125,9.98860932617187,-0.756567724609375
1.08449294802505,-0.1915361328125,9.95030209960937,-0.684741674804688
1.09226691395387,-0.181959326171875,9.93593688964844,-0.742202514648437
1.10004087988268,-0.15322890625,9.95030209960937,-0.74699091796875
1.10788452408841,-0.205901342773437,9.93114848632812,-0.718260498046875
1.11572816829414,-0.196324536132812,9.96466730957031,-0.660799658203125
1.12357181249987,-0.225054956054687,9.92636008300781,-0.770932934570312
1.1314181754556,-0.177170922851562,9.94551369628906,-0.713472094726562
1.13926453841132,-0.158017309570312,9.97903251953125,-0.770932934570312
1.14711090136705,-0.15322890625,9.91199487304687,-0.770932934570312
1.15495927951375,-0.196324536132812,9.95509050292969,-0.751779321289062
1.16280765766045,-0.17238251953125,9.94551369628906,-0.660799658203125
1.17065603580715,-0.162805712890625,9.97903251953125,-0.742202514648437
1.17850594585489,-0.158017309570312,9.96466730957031,-0.732625708007812
1.18635585590263,-0.17238251953125,9.96466730957031,-0.775721337890625
1.19420576595037,-0.158017309570312,9.95030209960937,-0.74699091796875
1.20205712641044,-0.15322890625,9.98382092285156,-0.694318481445312
1.20990848687051,-0.119710083007812,9.95987890625,-0.67037646484375
1.21775984733058,-0.205901342773437,9.95030209960937,-0.7278373046875
1.2256837274304,-0.124498486328125,9.95987890625,-0.694318481445312
1.23360760753023,-0.162805712890625,9.95987890625,-0.809240161132812
1.24153148763006,-0.17238251953125,9.97424411621094,-0.737414111328125
1.24946016753457,-0.17238251953125,9.92636008300781,-0.775721337890625
1.25738884743908,-0.143652099609375,9.95987890625,-0.7278373046875
1.2653175273436,-0.143652099609375,9.98382092285156,-0.70868369140625
1.27324899522554,-0.138863696289063,9.91678327636719,-0.770932934570312
1.28118046310748,-0.15322890625,9.94551369628906,-0.713472094726562
1.28911193098943,-0.138863696289063,9.95987890625,-0.761356127929687
1.29704560904932,-0.138863696289063,9.89284125976562,-0.76614453125
1.30497928710922,-0.143652099609375,9.91678327636719,-0.775721337890625
1.31291296516911,-0.129286889648437,9.95030209960937,-0.7278373046875
1.32084820540349,-0.100556469726563,9.93114848632812,-0.775721337890625
1.32878344563786,-0.186747729492187,9.91678327636719,-0.723048901367187
1.33671868587223,-0.124498486328125,9.93593688964844,-0.8044517578125
1.34471753743473,-0.138863696289063,9.95509050292969,-0.718260498046875
1.35271638899723,-0.138863696289063,9.93593688964844,-0.723048901367187
1.36071524055973,-0.162805712890625,9.93114848632812,-0.7278373046875
1.3687194055988,-0.148440502929687,9.94551369628906,-0.7278373046875
1.37672357063786,-0.143652099609375,9.94551369628906,-0.713472094726562
1.38472773567692,-0.148440502929687,9.93593688964844,-0.718260498046875
1.3928056635198,-0.17238251953125,9.94072529296875,-0.756567724609375
1.40088359136268,-0.15322890625,9.91678327636719,-0.737414111328125
1.40896151920556,-0.162805712890625,9.95509050292969,-0.742202514648437
1.41704257183143,-0.17238251953125,9.95987890625,-0.756567724609375
1.42512362445729,-0.158017309570312,9.94551369628906,-0.76614453125
1.43320467708316,-0.148440502929687,9.95987890625,-0.76614453125
1.44128750824635,-0.162805712890625,9.93593688964844,-0.737414111328125
1.44937033940955,-0.143652099609375,9.95030209960937,-0.780509741210937
1.45745317057274,-0.143652099609375,9.94072529296875,-0.742202514648437
1.46553756347639,-0.181959326171875,9.95030209960937,-0.780509741210937
1.47362195638003,-0.177170922851562,9.96945571289062,-0.713472094726562
1.48170634928368,-0.17238251953125,9.98860932617187,-0.699106884765625
1.48979246147986,-0.1915361328125,9.95509050292969,-0.761356127929687
1.49787857367604,-0.167594116210937,9.94551369628906,-0.732625708007812
1.50596468587221,-0.143652099609375,9.96945571289062,-0.751779321289062
1.51405564257794,-0.105344873046875,9.95030209960937,-0.656011254882812
1.52214659928367,-0.17238251953125,9.95509050292969,-0.732625708007812
1.5302375559894,-0.177170922851562,9.97424411621094,-0.732625708007812
1.53833006608055,-0.167594116210937,9.94072529296875,-0.8044517578125
1.54642257617169,-0.162805712890625,9.93593688964844,-0.713472094726562
1.55451508626284,-0.1915361328125,9.90241806640625,-0.713472094726562
1.56673264968515,-0.205901342773437,9.95987890625,-0.742202514648437
1.57895021310745,-0.1915361328125,9.97424411621094,-0.723048901367187
1.59116777652976,-0.17238251953125,9.94072529296875,-0.723048901367187
1.59932565348289,-0.21068974609375,9.95509050292969,-0.761356127929687
1.60748353043601,-0.167594116210937,9.94072529296875,-0.703895288085937
1.61564140738914,-0.148440502929687,9.93114848632812,-0.756567724609375
1.62380089957664,-0.162805712890625,9.9215716796875,-0.718260498046875
1.63196039176414,-0.201112939453125,9.97424411621094,-0.723048901367187
1.64011988395164,-0.17238251953125,9.94551369628906,-0.7278373046875
1.64828172943775,-0.177170922851562,9.95509050292969,-0.742202514648437
1.65644357492385,-0.177170922851562,9.96945571289062,-0.723048901367187
1.66460542040996,-0.158017309570312,9.90720646972656,-0.713472094726562
1.67283927077889,-0.17238251953125,9.94072529296875,-0.790086547851562
1.68107312114781,-0.167594116210937,9.95987890625,-0.790086547851562
1.68930697151673,-0.17238251953125,9.94072529296875,-0.761356127929687
1.69754313058791,-0.162805712890625,9.94072529296875,-0.718260498046875
1.70577928965909,-0.215478149414062,9.90241806640625,-0.699106884765625
1.71401544873027,-0.177170922851562,9.93593688964844,-0.737414111328125
1.722253210232,-0.21068974609375,9.95987890625,-0.756567724609375
1.73049097173374,-0.239420166015625,9.93593688964844,-0.7278373046875
1.73872873323547,-0.215478149414062,9.94551369628906,-0.723048901367187
1.74696802978495,-0.167594116210937,9.90720646972656,-0.723048901367187
1.75520732633443,-0.201112939453125,9.94072529296875,-0.799663354492188
1.76344662288391,-0.148440502929687,9.95509050292969,-0.723048901367187
1.77168738102193,-0.205901342773437,9.91199487304687,-0.723048901367187
1.77992813915995,-0.1915361328125,9.96466730957031,-0.780509741210937
1.78816889729797,-0.181959326171875,9.96466730957031,-0.742202514648437
1.79648114100456,-0.143652099609375,9.92636008300781,-0.756567724609375
1.80479338471116,-0.158017309570312,9.94551369628906,-0.78529814453125
1.81310562841775,-0.158017309570312,9.92636008300781,-0.76614453125
1.8214230213214,-0.177170922851562,9.90720646972656,-0.742202514648437
1.82974041422504,-0.162805712890625,9.98860932617187,-0.742202514648437
1.83805780712869,-0.17238251953125,9.97424411621094,-0.82360537109375
1.84637845968945,-0.177170922851562,9.95987890625,-0.756567724609375
1.85469911225021,-0.13407529296875,9.94551369628906,-0.756567724609375
1.86301976481097,-0.17238251953125,9.95030209960937,-0.770932934570312
1.87134199072243,-0.13407529296875,9.96466730957031,-0.7278373046875
1.87966421663389,-0.181959326171875,9.96466730957031,-0.7278373046875
1.88798644254534,-0.13407529296875,9.95030209960937,-0.732625708007812
1.89631033468944,-0.158017309570312,9.99339772949219,-0.770932934570312
1.90463422683353,-0.186747729492187,9.95987890625,-0.699106884765625
1.91295811897763,-0.162805712890625,9.92636008300781,-0.82360537109375
1.92128348388648,-0.143652099609375,9.98860932617187,-0.74699091796875
1.92960884879534,-0.17238251953125,9.99339772949219,-0.703895288085937
1.93793421370419,-0.143652099609375,9.94551369628906,-0.742202514648437
1.94632603922502,-0.129286889648437,9.95030209960937,-0.7278373046875
1.95471786474585,-0.167594116210937,10.0029745361328,-0.761356127929687
1.96310969026669,-0.17238251953125,9.96945571289062,-0.818816967773437
1.97150457221113,-0.177170922851562,9.96466730957031,-0.699106884765625
1.97989945415557,-0.158017309570312,9.95030209960937,-0.751779321289062
1.98829433610001,-0.186747729492187,9.95987890625,-0.732625708007812
1.99669350374324,-0.205901342773437,9.94551369628906,-0.737414111328125
2.00509267138647,-0.138863696289063,9.97424411621094,-0.756567724609375
2.0134918390297,-0.162805712890625,10.0077629394531,-0.780509741210937
2.02189618267119,-0.17238251953125,9.95987890625,-0.699106884765625
2.03030052631268,-0.225054956054687,9.95030209960937,-0.775721337890625
2.03870486995418,-0.205901342773437,9.93593688964844,-0.76614453125
2.04711102880834,-0.181959326171875,9.98382092285156,-0.799663354492188
2.05551718766251,-0.167594116210937,9.93593688964844,-0.756567724609375
2.06392334651668,-0.17238251953125,9.94551369628906,-0.794874951171875
2.07239070914688,-0.17238251953125,9.94551369628906,-0.751779321289062
2.08085807177709,-0.17238251953125,9.95509050292969,-0.837970581054687
2.0893254344073,-0.15322890625,9.94072529296875,-0.78529814453125
2.09779541606963,-0.17238251953125,9.96945571289062,-0.756567724609375
2.10626539773195,-0.215478149414062,9.94551369628906,-0.756567724609375
2.11473537939428,-0.15322890625,9.95509050292969,-0.761356127929687
2.1232069156356,-0.205901342773437,9.97903251953125,-0.770932934570312
2.13167845187691,-0.215478149414062,9.96945571289062,-0.751779321289062
2.14014998811823,-0.17238251953125,9.93593688964844,-0.780509741210937
2.14862308479792,-0.1915361328125,9.93114848632812,-0.74699091796875
2.15709618147761,-0.177170922851562,9.97903251953125,-0.76614453125
2.16556927815729,-0.21068974609375,9.97903251953125,-0.814028564453125
2.17404386431181,-0.21068974609375,10.0029745361328,-0.871489404296875
2.18251845046632,-0.1915361328125,9.97424411621094,-0.780509741210937
2.19099303662083,-0.205901342773437,9.94072529296875,-0.852335791015625
2.19953895035781,-0.181959326171875,9.90720646972656,-0.833182177734375
2.20808486409479,-0.201112939453125,9.93114848632812,-0.809240161132812
2.21663077783177,-0.258573779296875,9.94072529296875,-0.833182177734375
2.22517889230659,-0.225054956054687,9.95030209960937,-0.857124194335937
2.23372700678142,-0.196324536132812,9.98860932617187,-0.852335791015625
2.24227512125624,-0.220266552734375,9.99339772949219,-0.82360537109375
2.25082511387777,-0.234631762695312,9.95030209960937,-0.852335791015625
2.2593751064993,-0.220266552734375,9.97903251953125,-0.90021982421875
2.26792509912083,-0.21068974609375,10.0125513427734,-0.833182177734375
2.27647660584825,-0.215478149414062,10.036493359375,-0.857124194335937
2.28502811257568,-0.239420166015625,10.036493359375,-0.857124194335937
2.29357961930311,-0.21068974609375,10.0460701660156,-0.895431420898437
2.30220415369981,-0.201112939453125,10.0460701660156,-0.837970581054687
2.31082868809651,-0.17238251953125,10.0843773925781,-0.885854614257812
2.31945322249321,-0.205901342773437,10.0748005859375,-0.857124194335937
2.32808071674234,-0.21068974609375,10.0843773925781,-0.82360537109375
2.33670821099147,-0.215478149414062,10.0987426025391,-0.814028564453125
2.3453357052406,-0.17238251953125,10.1274730224609,-0.76614453125
2.35396482438123,-0.167594116210937,10.1178962158203,-0.74699091796875
2.36259394352185,-0.229843359375,10.0987426025391,-0.689530078125
2.37122306266247,-0.15322890625,10.0795889892578,-0.76614453125
2.37985406646022,-0.148440502929687,10.1226846191406,-0.723048901367187
2.38848507025796,-0.148440502929687,10.0748005859375,-0.751779321289062
2.3971160740557,-0.13407529296875,10.0891657958984,-0.718260498046875
2.40574855658608,-0.129286889648437,10.0460701660156,-0.718260498046875
2.41438103911647,-0.124498486328125,10.0221281494141,-0.809240161132812
2.42301352164685,-0.15322890625,10.0173397460938,-0.665588061523437
2.43164797151664,-0.15322890625,10.0029745361328,-0.723048901367187
2.44028242138643,-0.1149216796875,9.95987890625,-0.732625708007812
2.44891687125622,-0.13407529296875,9.97903251953125,-0.699106884765625
2.45761984510604,-0.13407529296875,9.94551369628906,-0.713472094726562
2.46632281895587,-0.138863696289063,9.94551369628906,-0.67037646484375
2.4750257928057,-0.162805712890625,9.91678327636719,-0.684741674804688
2.48373315869111,-0.09576806640625,9.91199487304687,-0.703895288085937
2.49244052457653,-0.129286889648437,9.89284125976562,-0.656011254882812
2.50114789046195,-0.124498486328125,9.87847604980469,-0.689530078125
2.50985851307479,-0.124498486328125,9.90720646972656,-0.679953271484375
2.51856913568764,-0.162805712890625,9.883264453125,-0.684741674804688
2.52727975830048,-0.119710083007812,9.86889924316406,-0.723048901367187
2.53599195827878,-0.129286889648437,9.883264453125,-0.665588061523437
2.54470415825708,-0.13407529296875,9.89762966308594,-0.684741674804688
2.55341635823538,-0.177170922851562,9.79707319335937,-0.6512228515625
2.56213003716333,-0.167594116210937,9.86889924316406,-0.656011254882812
2.57084371609128,-0.181959326171875,9.90241806640625,-0.660799658203125
2.57955739501923,-0.177170922851562,9.85932243652344,-0.770932934570312
2.58833782807045,-0.205901342773437,9.83059201660156,-0.646434448242187
2.59711826112166,-0.186747729492187,9.84016882324219,-0.679953271484375
2.60589869417287,-0.21068974609375,9.87847604980469,-0.641646044921875
2.6146824023977,-0.205901342773437,9.86889924316406,-0.641646044921875
2.62346611062252,-0.196324536132812,9.86889924316406,-0.6512228515625
2.63224981884735,-0.234631762695312,9.90720646972656,-0.646434448242187
2.64103750960256,-0.201112939453125,9.89762966308594,-0.679953271484375
2.64982520035777,-0.205901342773437,9.89762966308594,-0.689530078125
2.65861289111298,-0.215478149414062,9.91199487304687,-0.641646044921875
2.66747227490204,-0.21068974609375,9.91678327636719,-0.675164868164063
2.6763316586911,-0.234631762695312,9.90720646972656,-0.646434448242187
2.68519104248016,-0.196324536132812,9.91199487304687,-0.7278373046875
2.6940540213213,-0.21068974609375,9.91678327636719,-0.694318481445312
2.70291700016245,-0.215478149414062,9.96466730957031,-0.622492431640625
2.71177997900359,-0.196324536132812,9.96466730957031,-0.74699091796875
2.7206454152015,-0.201112939453125,9.93593688964844,-0.67037646484375
2.72951085139942,-0.234631762695312,9.96945571289062,-0.699106884765625
2.73837628759733,-0.229843359375,9.97903251953125,-0.6512228515625
2.74724334304438,-0.1915361328125,9.96466730957031,-0.70868369140625
2.75611039849143,-0.205901342773437,9.94551369628906,-0.699106884765625
2.76497745393848,-0.234631762695312,9.95987890625,-0.646434448242187
2.77384905723709,-0.234631762695312,9.92636008300781,-0.656011254882812
2.7827206605357,-0.239420166015625,9.91199487304687,-0.6512228515625
2.79159226383431,-0.24899697265625,9.93593688964844,-0.622492431640625
2.80046787689855,-0.258573779296875,9.96945571289062,-0.665588061523437
2.80934348996278,-0.215478149414062,9.95030209960937,-0.718260498046875
2.81821910302702,-0.229843359375,9.95030209960937,-0.703895288085937
2.8270996480574,-0.201112939453125,9.95030209960937,-0.737414111328125
2.83598019308778,-0.205901342773437,9.93114848632812,-0.7278373046875
2.84486073811817,-0.244208569335937,9.95030209960937,-0.675164868164063
2.85387479725445,-0.2681505859375,9.97424411621094,-0.684741674804688
2.86288885639073,-0.244208569335937,9.91199487304687,-0.699106884765625
2.87190291552702,-0.277727392578125,9.92636008300781,-0.751779321289062
2.88092041042719,-0.220266552734375,9.95030209960937,-0.751779321289062
2.88993790532736,-0.220266552734375,9.95030209960937,-0.703895288085937
2.89895540022754,-0.229843359375,9.94551369628906,-0.656011254882812
2.90797471978049,-0.253785375976562,9.98382092285156,-0.699106884765625
2.91699403933344,-0.272938989257812,9.94072529296875,-0.737414111328125
2.92601335888639,-0.253785375976562,9.95987890625,-0.732625708007812
2.93503442583517,-0.28730419921875,9.97903251953125,-0.74699091796875
2.94405549278395,-0.253785375976562,9.98860932617187,-0.74699091796875
2.95307655973274,-0.244208569335937,10.0221281494141,-0.656011254882812
2.96209947455479,-0.277727392578125,9.97903251953125,-0.694318481445312
2.97112238937683,-0.229843359375,9.98860932617187,-0.699106884765625
2.98014530419888,-0.239420166015625,10.0173397460938,-0.660799658203125
2.98916991661207,-0.225054956054687,9.98382092285156,-0.78529814453125
2.99819452902527,-0.277727392578125,9.97424411621094,-0.761356127929687
3.00721914143846,-0.229843359375,9.97903251953125,-0.775721337890625
3.01624525124749,-0.1915361328125,9.98382092285156,-0.775721337890625
3.02527136105652,-0.234631762695312,10.0221281494141,-0.78529814453125
3.03429747086555,-0.201112939453125,10.0125513427734,-0.770932934570312
3.05362384817132,-0.1915361328125,10.0077629394531,-0.809240161132812
3.07295022547709,-0.162805712890625,10.0412817626953,-0.780509741210937
3.09227660278286,-0.13407529296875,10.036493359375,-0.814028564453125
3.09446483878546,-0.143652099609375,10.036493359375,-0.76614453125
3.09665307478806,-0.129286889648437,10.0508585693359,-0.82360537109375
3.09884131079066,-0.148440502929687,10.0125513427734,-0.770932934570312
3.10103273961011,-0.13407529296875,10.0221281494141,-0.775721337890625
3.10322416842956,-0.124498486328125,10.0221281494141,-0.78529814453125
3.105415597249,-0.09576806640625,10.0077629394531,-0.718260498046875
3.10753713229674,-0.09576806640625,10.0077629394531,-0.7278373046875
3.10965866734449,-0.09576806640625,10.0125513427734,-0.780509741210937
3.11178020239223,-0.100556469726563,10.0125513427734,-0.833182177734375
3.11389675013529,-0.0909796630859375,10.0029745361328,-0.732625708007812
3.11601329787834,-0.0718260498046875,10.0125513427734,-0.818816967773437
3.1181298456214,-0.0814028564453125,9.99339772949219,-0.723048901367187
3.12024447029588,-0.067037646484375,9.97424411621094,-0.8044517578125
3.12235909497036,-0.0526724365234375,10.0029745361328,-0.7278373046875
3.12447371964484,-0.076614453125,9.96466730957031,-0.814028564453125
3.12658747485317,-0.0622492431640625,9.97903251953125,-0.76614453125
3.12870123006151,-0.076614453125,9.95987890625,-0.756567724609375
3.13081498526984,-0.067037646484375,9.95509050292969,-0.770932934570312
3.13610166726311,-0.0430956298828125,9.86411083984375,-0.76614453125
3.14138834925639,-0.076614453125,9.85932243652344,-0.742202514648437
3.14667503124966,-0.0814028564453125,9.83538041992187,-0.794874951171875
3.14877812858039,-0.0718260498046875,9.86411083984375,-0.718260498046875
3.15088122591112,-0.009576806640625,9.86411083984375,-0.689530078125
3.15298432324185,0.0,9.84974562988281,-0.70868369140625
3.15508457503221,-0.0335188232421875,9.84974562988281,-0.775721337890625
3.15718482682258,-0.0718260498046875,9.81622680664062,-0.794874951171875
3.15928507861294,-0.01915361328125,9.85932243652344,-0.70868369140625
3.16138188107605,-0.0383072265625,9.87847604980469,-0.6512228515625
3.16347868353916,-0.047884033203125,9.85932243652344,-0.67037646484375
3.16557548600227,-0.0383072265625,9.883264453125,-0.70868369140625
3.16764282302484,-0.0143652099609375,9.83059201660156,-0.684741674804688
3.16971016004741,-0.028730419921875,9.883264453125,-0.775721337890625
3.17177749706998,-0.0047884033203125,9.87847604980469,-0.703895288085937
3.17388243055522,-0.01915361328125,9.89762966308594,-0.742202514648437
3.17598736404046,-0.009576806640625,9.90241806640625,-0.732625708007812
3.1780922975257,-0.0047884033203125,9.94551369628906,-0.7278373046875
3.18019241509298,-0.028730419921875,9.95987890625,-0.679953271484375
3.18229253266025,0.009576806640625,9.94072529296875,-0.718260498046875
3.18439265022753,-0.009576806640625,9.95030209960937,-0.684741674804688
3.18648958452657,0.0239420166015625,9.97903251953125,-0.694318481445312
3.18858651882562,0.0047884033203125,9.99339772949219,-0.742202514648437
3.19068345312466,0.0335188232421875,9.95987890625,-0.699106884765625
3.19277796902093,0.0718260498046875,9.98860932617187,-0.718260498046875
3.1948724849172,0.0335188232421875,9.98860932617187,-0.694318481445312
3.19696700081346,0.047884033203125,10.0125513427734,-0.718260498046875
3.1990339325626,0.0430956298828125,10.0221281494141,-0.718260498046875
3.20110086431173,0.0430956298828125,10.0173397460938,-0.703895288085937
3.20316779606086,0.0335188232421875,10.0269165527344,-0.694318481445312
3.20527805978699,0.028730419921875,10.0221281494141,-0.703895288085937
3.20738832351312,0.0143652099609375,10.036493359375,-0.694318481445312
3.20949858723925,0.009576806640625,10.0221281494141,-0.636857641601562
3.21160961317241,0.0526724365234375,10.0077629394531,-0.713472094726562
3.21372063910557,0.028730419921875,9.98860932617187,-0.63206923828125
3.21583166503873,0.05746083984375,9.93114848632812,-0.636857641601562
3.21794354285991,0.0239420166015625,9.95030209960937,-0.751779321289062
3.22005542068109,-0.0239420166015625,9.93593688964844,-0.665588061523437
3.22216729850227,0.0047884033203125,9.93593688964844,-0.689530078125
3.22427922884081,-0.0383072265625,9.93593688964844,-0.6512228515625
3.22639115917935,-0.0047884033203125,9.91678327636719,-0.699106884765625
3.2285030895179,-0.0718260498046875,9.90241806640625,-0.646434448242187
3.23057963812901,0.0,9.92636008300781,-0.627280834960937
3.23265618674012,-0.0814028564453125,9.86889924316406,-0.622492431640625
3.23473273535123,-0.110133276367187,9.883264453125,-0.660799658203125
3.23684354058127,-0.0718260498046875,9.8449572265625,-0.684741674804688
3.2389543458113,-0.0814028564453125,9.83538041992187,-0.675164868164063
3.24106515104134,-0.09576806640625,9.8449572265625,-0.7278373046875
3.24317926247797,-0.143652099609375,9.86411083984375,-0.699106884765625
3.2452933739146,-0.1149216796875,9.89284125976562,-0.7278373046875
3.24740748535124,-0.09576806640625,9.95030209960937,-0.689530078125
3.24944694737381,-0.148440502929687,9.90720646972656,-0.679953271484375
3.25148640939638,-0.13407529296875,9.95030209960937,-0.699106884765625
3.25352587141895,-0.158017309570312,9.92636008300781,-0.713472094726562
3.25548773708735,-0.148440502929687,9.92636008300781,-0.723048901367187
3.25744960275575,-0.1915361328125,9.91678327636719,-0.665588061523437
3.25941146842416,-0.167594116210937,9.94551369628906,-0.646434448242187
3.26137052967633,-0.17238251953125,9.95509050292969,-0.694318481445312
3.2633295909285,-0.201112939453125,9.94551369628906,-0.751779321289062
3.26528865218067,-0.1915361328125,9.97903251953125,-0.694318481445312
3.26731121457216,-0.167594116210937,9.94551369628906,-0.699106884765625
3.26933377696365,-0.167594116210937,9.98382092285156,-0.689530078125
3.27135633935515,-0.177170922851562,9.96466730957031,-0.70868369140625
3.27338104866504,-0.220266552734375,10.0173397460938,-0.689530078125
3.27540575797494,-0.1915361328125,10.0221281494141,-0.761356127929687
3.27743046728483,-0.186747729492187,10.036493359375,-0.78529814453125
3.27945892241721,-0.181959326171875,10.0508585693359,-0.756567724609375
3.28148737754959,-0.186747729492187,10.0556469726563,-0.780509741210937
3.28351583268197,-0.21068974609375,10.0700121826172,-0.833182177734375
3.28554510150017,-0.177170922851562,10.0795889892578,-0.837970581054687
3.28757437031838,-0.21068974609375,10.1035310058594,-0.761356127929687
3.28960363913658,-0.1915361328125,10.0556469726563,-0.76614453125
3.29161671586649,-0.129286889648437,10.0556469726563,-0.742202514648437
3.2936297925964,-0.129286889648437,10.0748005859375,-0.742202514648437
3.29564286932631,-0.100556469726563,10.0891657958984,-0.74699091796875
3.29769968181081,-0.129286889648437,10.1131078125,-0.8044517578125
3.29975649429531,-0.110133276367187,10.0604353759766,-0.775721337890625
3.30181330677981,-0.1149216796875,10.0843773925781,-0.74699091796875
3.30385418585657,-0.119710083007812,10.0795889892578,-0.76614453125
3.30589506493333,-0.143652099609375,10.0843773925781,-0.751779321289062
3.30793594401009,-0.124498486328125,10.0460701660156,-0.7278373046875
3.30997329134082,-0.124498486328125,10.0652237792969,-0.713472094726562
3.31201063867155,-0.0622492431640625,10.0412817626953,-0.718260498046875
3.31404798600227,-0.138863696289063,10.0556469726563,-0.675164868164063
3.31608355560948,-0.09576806640625,10.0077629394531,-0.679953271484375
3.31811912521668,-0.100556469726563,10.0460701660156,-0.627280834960937
3.32015469482389,-0.0814028564453125,10.0317049560547,-0.694318481445312
3.32218828314854,-0.0909796630859375,10.036493359375,-0.63206923828125
3.32422187147319,-0.1149216796875,10.0556469726563,-0.689530078125
3.32625545979784,-0.110133276367187,9.99339772949219,-0.665588061523437
3.32835584700487,-0.129286889648437,10.036493359375,-0.67037646484375
3.3304562342119,-0.0909796630859375,10.0221281494141,-0.59376201171875
3.33255662141894,-0.138863696289063,10.0221281494141,-0.612915625
3.33462444401008,-0.181959326171875,9.97903251953125,-0.627280834960937
3.33669226660123,-0.181959326171875,10.0077629394531,-0.565031591796875
3.33876008919237,-0.162805712890625,10.0125513427734,-0.569819995117188
3.3407940319007,-0.24899697265625,9.96945571289062,-0.608127221679687
3.34282797460904,-0.225054956054687,9.97424411621094,-0.612915625
3.34486191731737,-0.253785375976562,9.95030209960937,-0.5746083984375
3.34689506217414,-0.239420166015625,9.94072529296875,-0.627280834960937
3.34892820703091,-0.282515795898438,9.96945571289062,-0.569819995117188
3.35096135188768,-0.292092602539062,9.96466730957031,-0.603338818359375
3.35299456206563,-0.311246215820312,9.93593688964844,-0.598550415039062
3.35502777224359,-0.349553442382812,10.0029745361328,-0.560243188476563
3.35706098242154,-0.339976635742188,9.97424411621094,-0.59376201171875
3.35916306136034,-0.3447650390625,9.98860932617187,-0.608127221679687
3.36126514029915,-0.349553442382812,10.0125513427734,-0.660799658203125
3.36336721923795,-0.3447650390625,10.0077629394531,-0.612915625
3.3654354762909,-0.383072265625,10.0029745361328,-0.588973608398437
3.36750373334385,-0.387860668945312,9.9981861328125,-0.660799658203125
3.36957199039681,-0.392649072265625,9.98860932617187,-0.59376201171875
3.37160501307476,-0.407014282226562,9.98860932617187,-0.679953271484375
3.37363803575271,-0.407014282226562,10.0077629394531,-0.622492431640625
3.37567105843066,-0.450109912109375,9.98860932617187,-0.617704028320312
3.37770294211122,-0.411802685546875,9.98382092285156,-0.656011254882812
3.37973482579177,-0.392649072265625,9.96466730957031,-0.63206923828125
3.38176670947233,-0.483628735351562,9.98860932617187,-0.656011254882812
3.38379806450705,-0.411802685546875,10.0029745361328,-0.622492431640625
3.38582941954177,-0.411802685546875,9.98860932617187,-0.665588061523437
3.38786077457649,-0.411802685546875,9.97903251953125,-0.6512228515625
3.39003974381478,-0.392649072265625,9.93593688964844,-0.660799658203125
3.39221871305306,-0.349553442382812,9.93114848632812,-0.656011254882812
3.39439768229134,-0.349553442382812,9.9215716796875,-0.622492431640625
3.39661929692893,-0.320823022460937,9.94551369628906,-0.656011254882812
3.39884091156651,-0.36391865234375,9.93593688964844,-0.603338818359375
3.4010625262041,-0.3064578125,9.91199487304687,-0.665588061523437
3.40332563406,-0.277727392578125,9.89284125976562,-0.70868369140625
3.40558874191591,-0.272938989257812,9.883264453125,-0.660799658203125
3.40785184977181,-0.253785375976562,9.883264453125,-0.675164868164063
3.41011648323535,-0.282515795898438,9.93114848632812,-0.63206923828125
3.4123811166989,-0.272938989257812,9.89762966308594,-0.656011254882812
3.41464575016244,-0.2681505859375,9.90720646972656,-0.598550415039062
3.41691057546626,-0.196324536132812,9.90720646972656,-0.603338818359375
3.41917540077008,-0.21068974609375,9.87847604980469,-0.675164868164063
3.4214402260739,-0.21068974609375,9.86411083984375,-0.636857641601562
3.42370532931826,-0.205901342773437,9.82101520996094,-0.612915625
3.42597043256262,-0.148440502929687,9.80186159667969,-0.608127221679687
3.42823553580697,-0.138863696289063,9.84016882324219,-0.588973608398437
3.43484330425315,-0.0909796630859375,9.78749638671875,-0.47884033203125
3.44145107269934,-0.076614453125,9.78270798339844,-0.541089575195312
3.44805884114552,-0.15322890625,9.80665,-0.536301171875
3.45458184483475,-0.416591088867187,10.2567599121094,-0.521935961914062
3.46110484852399,-0.435744702148437,10.2423947021484,-0.531512768554687
3.46762785221322,-0.383072265625,10.2328178955078,-0.541089575195312
3.47399959315289,-0.205901342773437,9.67736311035156,-0.713472094726562
3.48037133409256,-0.234631762695312,9.7683427734375,-0.612915625
3.48674307503223,-0.110133276367187,9.77313117675781,-0.627280834960937
3.48885062120193,-0.138863696289063,9.90241806640625,-0.603338818359375
3.49095816737164,-0.124498486328125,10.0077629394531,-0.675164868164063
3.49306571354134,-0.15322890625,10.1274730224609,-0.74699091796875
3.4951731902666,-0.215478149414062,10.2615483154297,-0.737414111328125
3.49728066699186,-0.263362182617187,10.3956236083984,-0.598550415039062
3.49938814371712,-0.28730419921875,10.4099888183594,-0.4979939453125
3.50149551302051,-0.272938989257812,10.419565625,-0.483628735351562
3.50360288232389,-0.359130249023437,10.3956236083984,-0.430956298828125
3.50571025162728,-0.36391865234375,10.3333743652344,-0.469263525390625
3.5078158355574,-0.4213794921875,10.2423947021484,-0.469263525390625
3.50992141948752,-0.411802685546875,10.1418382324219,-0.416591088867187
3.51202700341764,-0.397437475585937,10.1083194091797,-0.47884033203125
3.51427838275791,-0.44053310546875,10.0029745361328,-0.51714755859375
3.51652976209819,-0.411802685546875,9.94072529296875,-0.560243188476563
3.51878114143847,-0.392649072265625,9.78749638671875,-0.699106884765625
3.52102199484559,-0.32561142578125,9.58638344726563,-0.742202514648437
3.5232628482527,-0.301669409179687,9.43794294433594,-0.751779321289062
3.52550370165982,-0.1915361328125,9.37569370117187,-0.732625708007812
3.52770301025357,-0.0526724365234375,9.1554271484375,-0.770932934570312
3.52990231884732,0.0335188232421875,9.117119921875,-0.775721337890625
3.53210162744107,0.205901342773437,9.1554271484375,-0.818816967773437
3.53430084076572,0.301669409179687,9.25598361816406,-0.814028564453125
3.53650005409038,0.335188232421875,9.4618849609375,-0.790086547851562
3.53869926741503,0.339976635742188,9.64384428710937,-0.78529814453125
3.54089973822666,0.234631762695312,9.6917283203125,-0.799663354492188
3.54310020903829,0.15322890625,9.83059201660156,-0.780509741210937
3.54530067984992,0.0718260498046875,9.87368764648437,-0.837970581054687
3.54750037494541,0.067037646484375,9.95509050292969,-0.694318481445312
3.5497000700409,0.0335188232421875,10.0556469726563,-0.584185205078125
3.55189976513638,0.0909796630859375,10.0269165527344,-0.55545478515625
3.55402893787944,0.143652099609375,10.1083194091797,-0.536301171875
3.5561581106225,0.124498486328125,10.2471831054687,-0.6512228515625
3.55828728336555,0.100556469726563,10.4052004150391,-0.699106884765625
3.56370208490635,-0.354341845703125,10.26633671875,-0.63206923828125
3.56911688644715,-0.392649072265625,10.1992990722656,-0.665588061523437
3.57453168798795,-0.445321508789062,10.189722265625,-0.636857641601562
3.57679006287944,-0.450109912109375,10.1370498291016,-0.689530078125
3.57904843777094,-0.430956298828125,10.0748005859375,-0.603338818359375
3.58130681266243,-0.450109912109375,10.0604353759766,-0.598550415039062
3.583531231662,-0.464475122070312,10.0412817626953,-0.689530078125
3.58575565066156,-0.474051928710937,10.0173397460938,-0.713472094726562
3.58798006966113,-0.488417138671875,10.0125513427734,-0.689530078125
3.59016864447667,-0.512359155273437,9.97903251953125,-0.646434448242187
3.5923572192922,-0.493205541992187,9.93593688964844,-0.612915625
3.59454579410774,-0.426167895507812,9.91678327636719,-0.59376201171875
3.59673234971755,-0.378283862304687,9.87847604980469,-0.603338818359375
3.59891890532736,-0.36391865234375,9.81622680664062,-0.67037646484375
3.60110546093717,-0.320823022460937,9.83538041992187,-0.718260498046875
3.60329132367589,-0.234631762695312,9.78749638671875,-0.76614453125
3.6054771864146,-0.201112939453125,9.81143840332031,-0.751779321289062
3.60766304915332,-0.167594116210937,9.82101520996094,-0.70868369140625
3.60985000184429,-0.124498486328125,9.86889924316406,-0.675164868164063
3.61203695453526,-0.0622492431640625,9.91199487304687,-0.660799658203125
3.61422390722624,-0.0335188232421875,9.9215716796875,-0.656011254882812
3.61641081754525,-0.05746083984375,9.88805285644531,-0.718260498046875
3.61859772786426,-0.0430956298828125,9.87847604980469,-0.608127221679687
3.62078463818327,0.01915361328125,9.87847604980469,-0.627280834960937
3.62515393977832,0.167594116210937,9.82101520996094,-0.675164868164063
3.62952324137337,0.177170922851562,9.81622680664062,-0.694318481445312
3.63389254296842,0.205901342773437,9.83538041992187,-0.70868369140625
3.63607519308778,0.177170922851562,9.81143840332031,-0.694318481445312
3.63825784320714,0.196324536132812,9.76355437011719,-0.699106884765625
3.64044049332649,0.201112939453125,9.82101520996094,-0.713472094726562
3.64262034315288,0.21068974609375,9.79228479003906,-0.694318481445312
3.64480019297927,0.138863696289063,9.81143840332031,-0.67037646484375
3.64698004280566,0.129286889648437,9.82101520996094,-0.612915625
3.64915800151877,0.09576806640625,9.83538041992187,-0.665588061523437
3.65133596023187,0.0430956298828125,9.83059201660156,-0.684741674804688
3.65351391894498,0.0335188232421875,9.87847604980469,-0.660799658203125
3.65566185091113,0.01915361328125,9.82101520996094,-0.6512228515625
3.65780978287727,0.0239420166015625,9.86411083984375,-0.6512228515625
3.65995771484342,-0.047884033203125,9.82101520996094,-0.703895288085937
3.6621442013343,-0.01915361328125,9.85932243652344,-0.641646044921875
3.66433068782518,-0.0909796630859375,9.84974562988281,-0.622492431640625
3.66651717431607,-0.13407529296875,9.883264453125,-0.598550415039062
3.66877942990418,-0.13407529296875,9.92636008300781,-0.608127221679687
3.67104168549229,-0.167594116210937,9.91678327636719,-0.550666381835937
3.67330394108039,-0.158017309570312,9.86889924316406,-0.541089575195312
3.67557107828743,-0.225054956054687,9.86411083984375,-0.531512768554687
3.67783821549446,-0.244208569335937,9.87368764648437,-0.51714755859375
3.68010535270149,-0.234631762695312,9.84974562988281,-0.531512768554687
3.68237643077223,-0.253785375976562,9.8449572265625,-0.526724365234375
3.68464750884298,-0.277727392578125,9.88805285644531,-0.560243188476563
3.68691858691372,-0.263362182617187,9.89762966308594,-0.5746083984375
3.68915675092197,-0.2681505859375,9.93114848632812,-0.608127221679687
3.69139491493022,-0.258573779296875,9.95030209960937,-0.545877978515625
3.69363307893846,-0.277727392578125,9.95030209960937,-0.550666381835937
3.69583614740635,-0.244208569335937,9.96945571289062,-0.536301171875
3.69803921587423,-0.244208569335937,9.97903251953125,-0.565031591796875
3.70024228434211,-0.244208569335937,10.0125513427734,-0.4979939453125
3.70244481987814,-0.244208569335937,9.96466730957031,-0.483628735351562
3.70464735541416,-0.196324536132812,9.98860932617187,-0.541089575195312
3.70684989095018,-0.158017309570312,9.98860932617187,-0.512359155273437
3.70911052994758,-0.162805712890625,10.0221281494141,-0.550666381835937
3.71137116894498,-0.15322890625,10.0077629394531,-0.588973608398437
3.71363180794237,-0.17238251953125,10.0269165527344,-0.569819995117188
3.71804638959385,-0.01915361328125,10.0269165527344,-0.584185205078125
3.72246097124532,-0.028730419921875,9.99339772949219,-0.598550415039062
3.7268755528968,-0.0047884033203125,10.0317049560547,-0.699106884765625
3.72906483680522,0.009576806640625,10.036493359375,-0.608127221679687
3.73125412071364,0.0622492431640625,10.0029745361328,-0.660799658203125
3.73344340462206,0.086191259765625,10.0077629394531,-0.627280834960937
3.73563252240635,0.047884033203125,10.036493359375,-0.617704028320312
3.73782164019064,0.047884033203125,9.99339772949219,-0.660799658203125
3.74001075797493,0.067037646484375,9.99339772949219,-0.675164868164063
3.74219969297927,0.0814028564453125,9.99339772949219,-0.703895288085937
3.74438862798361,0.100556469726563,10.0125513427734,-0.679953271484375
3.74657756298795,0.119710083007812,10.0029745361328,-0.703895288085937
3.74876752322015,0.119710083007812,9.97903251953125,-0.713472094726562
3.75095748345236,0.119710083007812,9.96945571289062,-0.665588061523437
3.75314744368456,0.0718260498046875,9.94072529296875,-0.74699091796875
3.75644546912944,0.158017309570312,9.89284125976562,-0.737414111328125
3.75974349457432,0.162805712890625,9.92636008300781,-0.713472094726562
3.7630415200192,0.148440502929687,9.89762966308594,-0.756567724609375
3.76522696912944,0.15322890625,9.90720646972656,-0.770932934570312
3.76741241823968,0.158017309570312,9.93593688964844,-0.775721337890625
3.76959786734992,0.162805712890625,9.96466730957031,-0.718260498046875
3.77178182926399,0.15322890625,9.94551369628906,-0.756567724609375
3.77396579117805,0.129286889648437,10.0029745361328,-0.790086547851562
3.77614975309212,0.15322890625,9.98860932617187,-0.761356127929687
3.77833368288812,0.17238251953125,9.95030209960937,-0.76614453125
3.78051761268413,0.124498486328125,9.97903251953125,-0.756567724609375
3.78270154248013,0.148440502929687,9.94551369628906,-0.723048901367187
3.78488547195062,0.0718260498046875,9.96466730957031,-0.751779321289062
3.78706940142111,0.05746083984375,9.94072529296875,-0.76614453125
3.78925333089159,0.0143652099609375,9.95509050292969,-0.814028564453125
3.79144001003656,-0.0239420166015625,9.9215716796875,-0.82360537109375
3.79362668918152,-0.0430956298828125,9.96466730957031,-0.818816967773437
3.79581336832649,-0.05746083984375,9.93593688964844,-0.814028564453125
3.79799947998013,-0.0718260498046875,9.92636008300781,-0.78529814453125
3.80018559163378,-0.13407529296875,9.93593688964844,-0.78529814453125
3.80237170328742,-0.162805712890625,9.91199487304687,-0.828393774414062
3.80455539306607,-0.148440502929687,9.94551369628906,-0.799663354492188
3.80673908284471,-0.1915361328125,9.90241806640625,-0.82360537109375
3.80892277262336,-0.167594116210937,9.89762966308594,-0.76614453125
3.81103663937683,-0.143652099609375,9.86889924316406,-0.770932934570312
3.8131505061303,-0.201112939453125,9.87847604980469,-0.732625708007812
3.81526437288378,-0.21068974609375,9.90720646972656,-0.833182177734375
3.81737613991937,-0.215478149414062,9.88805285644531,-0.699106884765625
3.81948790695496,-0.205901342773437,9.86889924316406,-0.799663354492188
3.82159967399055,-0.201112939453125,9.89284125976562,-0.76614453125
3.82377982676833,-0.162805712890625,9.86411083984375,-0.74699091796875
3.82595997954611,-0.124498486328125,9.883264453125,-0.799663354492188
3.82814013232388,-0.09576806640625,9.91678327636719,-0.713472094726562
3.83039740814853,-0.067037646484375,9.91678327636719,-0.713472094726562
3.83265468397319,-0.0239420166015625,9.93114848632812,-0.718260498046875
3.83491195979784,0.01915361328125,9.90241806640625,-0.751779321289062
3.83717015348273,-0.0143652099609375,9.89284125976562,-0.713472094726562
3.83942834716763,0.0143652099609375,9.87847604980469,-0.756567724609375
3.84168654085252,-0.0047884033203125,9.93114848632812,-0.742202514648437
3.84394671023186,-0.0335188232421875,9.9215716796875,-0.756567724609375
3.8462068796112,0.0,9.91199487304687,-0.732625708007812
3.84846704899054,0.0143652099609375,9.87847604980469,-0.636857641601562
3.85072520686815,0.009576806640625,9.86411083984375,-0.742202514648437
3.85298336474575,0.01915361328125,9.86889924316406,-0.723048901367187
3.85524152262335,-0.009576806640625,9.96466730957031,-0.732625708007812
3.85736776752353,0.0622492431640625,10.0221281494141,-0.790086547851562
3.8594940124237,0.0430956298828125,10.0125513427734,-0.70868369140625
3.86162025732387,-0.0047884033203125,10.0269165527344,-0.6512228515625
3.86374494970668,0.076614453125,10.0700121826172,-0.622492431640625
3.8658696420895,0.0622492431640625,10.1274730224609,-0.656011254882812
3.86799433447231,0.119710083007812,10.1370498291016,-0.665588061523437
3.87011877696363,0.05746083984375,10.0987426025391,-0.699106884765625
3.87224321945495,0.0383072265625,10.0652237792969,-0.641646044921875
3.87436766194627,0.067037646484375,10.0748005859375,-0.608127221679687
3.87881583968064,0.162805712890625,9.96945571289062,-0.665588061523437
3.88326401741502,0.1915361328125,10.0125513427734,-0.636857641601562
3.88771219514939,0.229843359375,9.95509050292969,-0.742202514648437
3.88997010443759,0.234631762695312,9.94551369628906,-0.713472094726562
3.89222801372578,0.239420166015625,9.95030209960937,-0.713472094726562
3.89448592301398,0.263362182617187,9.96945571289062,-0.742202514648437
3.89674431646015,0.162805712890625,9.96945571289062,-0.689530078125
3.89900270990633,0.282515795898438,9.81143840332031,-0.7278373046875
3.90126110335251,0.15322890625,9.70609353027344,-0.770932934570312
3.90346715487975,0.067037646484375,9.68215151367187,-0.852335791015625
3.90567320640698,0.0718260498046875,9.70130512695312,-0.890643017578125
3.90787925793422,0.0,9.72045874023437,-0.924161840820312
3.91001494905564,-0.105344873046875,9.6917283203125,-0.742202514648437
3.91215064017705,-0.1915361328125,9.72524714355469,-0.703895288085937
3.91428633129847,-0.229843359375,9.73482395019531,-0.636857641601562
3.91640300415004,-0.24899697265625,9.7683427734375,-0.689530078125
3.9185196770016,-0.2681505859375,9.75397756347656,-0.737414111328125
3.92063634985317,-0.277727392578125,9.7683427734375,-0.780509741210937
3.92274913142869,-0.301669409179687,9.82580361328125,-0.70868369140625
3.92486191300421,-0.28730419921875,9.83538041992187,-0.6512228515625
3.92697469457973,-0.201112939453125,9.87368764648437,-0.684741674804688
3.93235847482604,-0.0047884033203125,9.90241806640625,-0.8810662109375
3.93774225507235,0.0143652099609375,9.96466730957031,-1.00077629394531
3.94312603531866,-0.0335188232421875,10.2711251220703,-1.09175595703125
3.945298751573,-0.0622492431640625,10.5153336914062,-0.905008227539062
3.94747146782734,-0.129286889648437,10.5057568847656,-0.694318481445312
3.94964418408168,-0.17238251953125,10.4099888183594,-0.474051928710937
3.95181732155997,-0.17238251953125,10.2998555419922,-0.541089575195312
3.95399045903827,-0.234631762695312,10.2040874755859,-0.646434448242187
3.95616359651657,-0.201112939453125,10.1035310058594,-0.70868369140625
3.95831582363517,-0.158017309570312,10.0939541992188,-0.723048901367187
3.96046805075376,-0.09576806640625,10.1466266357422,-0.761356127929687
3.96262027787236,-0.0430956298828125,10.1370498291016,-0.737414111328125
3.9647439188907,-0.01915361328125,10.1370498291016,-0.828393774414062
3.96686755990904,0.0,10.1466266357422,-0.8044517578125
3.96899120092738,0.0383072265625,10.1226846191406,-0.742202514648437
3.97117792141349,-0.0335188232421875,10.1322614257812,-0.78529814453125
3.9733646418996,0.009576806640625,10.0460701660156,-0.756567724609375
3.97555136238571,-0.0143652099609375,10.0556469726563,-0.751779321289062
3.97774142531974,-0.0047884033203125,10.0987426025391,-0.837970581054687
3.97993148825377,-0.01915361328125,10.0843773925781,-0.794874951171875
3.9821215511878,-0.09576806640625,10.0221281494141,-0.837970581054687
3.98438169246384,-0.09576806640625,10.0508585693359,-0.890643017578125
3.98664183373988,-0.110133276367187,10.0269165527344,-0.828393774414062
3.98890197501592,-0.167594116210937,10.0412817626953,-0.86191259765625
3.99116601787616,-0.225054956054687,9.9981861328125,-0.866701000976562
3.9934300607364,-0.24899697265625,9.97424411621094,-0.8810662109375
3.99569410359665,-0.258573779296875,9.96466730957031,-0.909796630859375
3.99792740161097,-0.282515795898438,9.93593688964844,-0.943315454101562
4.00016069962529,-0.32561142578125,9.98382092285156,-0.952892260742187
4.00239399763962,-0.3064578125,9.95987890625,-0.895431420898437
4.00459490926071,-0.330399829101562,9.98860932617187,-0.90021982421875
4.0067958208818,-0.378283862304687,9.9215716796875,-0.972045874023437
4.0089967325029,-0.392649072265625,9.94072529296875,-0.928950244140625
4.01119747675203,-0.3447650390625,9.90241806640625,-0.90021982421875
4.01339822100116,-0.373495458984375,9.95987890625,-0.933738647460937
4.0155989652503,-0.392649072265625,9.97903251953125,-0.90021982421875
4.01779959437356,-0.411802685546875,9.95987890625,-0.885854614257812
4.02000022349683,-0.411802685546875,9.9215716796875,-0.90021982421875
4.02220085262009,-0.368707055664062,9.92636008300781,-0.909796630859375
4.02440123212313,-0.378283862304687,9.87847604980469,-0.90021982421875
4.02660161162617,-0.339976635742188,9.90720646972656,-0.9193734375
4.02880199112921,-0.320823022460937,9.91678327636719,-0.852335791015625
4.03210290855542,-0.17238251953125,9.86889924316406,-0.90021982421875
4.03540382598163,-0.110133276367187,9.84974562988281,-0.871489404296875
4.03870474340785,-0.067037646484375,9.8449572265625,-0.890643017578125
4.04089187578632,-0.028730419921875,9.87368764648437,-0.86191259765625
4.0430790081648,-0.0047884033203125,9.85453403320312,-0.914585034179687
4.04526614054327,0.0335188232421875,9.82580361328125,-0.857124194335937
4.04745347496167,0.01915361328125,9.84016882324219,-0.799663354492188
4.04964080938008,0.0622492431640625,9.8449572265625,-0.790086547851562
4.05182814379848,0.0814028564453125,9.89284125976562,-0.814028564453125
4.05401545434536,0.086191259765625,9.883264453125,-0.790086547851562
4.05620276489223,0.1149216796875,9.9215716796875,-0.742202514648437
4.05839007543911,0.119710083007812,9.95987890625,-0.770932934570312
4.06064778236185,0.138863696289063,9.94551369628906,-0.799663354492188
4.06290548928459,0.13407529296875,9.95509050292969,-0.770932934570312
4.06516319620734,0.162805712890625,10.0077629394531,-0.699106884765625
4.06735217580803,0.17238251953125,10.0077629394531,-0.761356127929687
4.06954115540873,0.13407529296875,10.0125513427734,-0.699106884765625
4.07173013500942,0.177170922851562,10.0125513427734,-0.718260498046875
4.07391586667174,0.129286889648437,10.0700121826172,-0.694318481445312
4.07610159833407,0.162805712890625,10.0269165527344,-0.694318481445312
4.07828732999639,0.124498486328125,10.0700121826172,-0.723048901367187
4.08047189119431,0.0909796630859375,10.0173397460938,-0.742202514648437
4.08265645239223,0.076614453125,10.0652237792969,-0.703895288085937
4.08484101359014,0.138863696289063,10.0700121826172,-0.7278373046875
4.08702554332105,0.067037646484375,10.0556469726563,-0.732625708007812
4.08921007305195,0.0909796630859375,10.0652237792969,-0.694318481445312
4.09139460278286,0.09576806640625,10.0460701660156,-0.756567724609375
4.09364880362921,0.047884033203125,10.0652237792969,-0.646434448242187
4.09590300447557,0.047884033203125,10.0795889892578,-0.761356127929687
4.09815720532192,-0.0143652099609375,10.0269165527344,-0.732625708007812
4.10034793123338,-0.0143652099609375,10.0269165527344,-0.790086547851562
4.10253865714484,-0.01915361328125,10.0412817626953,-0.751779321289062
4.1047293830563,-0.0622492431640625,10.0556469726563,-0.790086547851562
4.10691830623338,-0.009576806640625,10.0221281494141,-0.842758984375
4.10910722941047,-0.0909796630859375,10.0125513427734,-0.76614453125
4.11129615258755,-0.0622492431640625,9.9981861328125,-0.737414111328125
4.11348173657193,-0.0718260498046875,9.97424411621094,-0.732625708007812
4.1156673205563,-0.076614453125,9.93593688964844,-0.723048901367187
4.11785290454068,-0.129286889648437,9.93114848632812,-0.665588061523437
4.12003408704936,-0.0814028564453125,9.99339772949219,-0.694318481445312
4.12221526955804,-0.158017309570312,9.95987890625,-0.70868369140625
4.12439645206672,-0.1915361328125,9.98860932617187,-0.636857641601562
4.1266459141978,-0.181959326171875,9.93114848632812,-0.656011254882812
4.12889537632888,-0.21068974609375,9.93114848632812,-0.7278373046875
4.13114483845995,-0.201112939453125,9.95509050292969,-0.679953271484375
4.13333760256586,-0.24899697265625,9.98382092285156,-0.656011254882812
4.13553036667176,-0.229843359375,9.94551369628906,-0.612915625
4.13772313077766,-0.253785375976562,9.90241806640625,-0.67037646484375
4.13991585755717,-0.253785375976562,9.87368764648437,-0.63206923828125
4.14210858433669,-0.239420166015625,9.92636008300781,-0.742202514648437
4.1443013111162,-0.229843359375,9.97903251953125,-0.699106884765625
4.14649303594259,-0.215478149414062,9.94551369628906,-0.732625708007812
4.14868476076898,-0.1915361328125,9.99339772949219,-0.641646044921875
4.15087648559537,-0.225054956054687,9.9981861328125,-0.584185205078125
4.15306819685839,-0.167594116210937,9.89284125976562,-0.656011254882812
4.15525990812141,-0.167594116210937,9.9215716796875,-0.641646044921875
4.15745161938443,-0.138863696289063,10.0077629394531,-0.67037646484375
4.15970744501377,-0.158017309570312,10.0412817626953,-0.718260498046875
4.16196327064312,-0.15322890625,9.99339772949219,-0.67037646484375
4.16421909627246,-0.15322890625,9.92636008300781,-0.656011254882812
4.16641079972298,-0.129286889648437,9.93114848632812,-0.70868369140625
4.1686025031735,-0.076614453125,9.92636008300781,-0.74699091796875
4.17079420662402,-0.05746083984375,9.8449572265625,-0.76614453125
4.17298840280457,-0.028730419921875,9.83059201660156,-0.756567724609375
4.17518259898513,-0.047884033203125,9.86889924316406,-0.780509741210937
4.17737679516569,-0.086191259765625,9.92636008300781,-0.70868369140625
4.17957331968826,-0.0383072265625,9.85932243652344,-0.794874951171875
4.18176984421083,-0.119710083007812,9.81622680664062,-0.713472094726562
4.1839663687334,-0.0814028564453125,9.86411083984375,-0.70868369140625
4.18616419794346,-0.105344873046875,9.85932243652344,-0.703895288085937
4.18836202715353,-0.244208569335937,9.8449572265625,-0.684741674804688
4.1905598563636,-0.201112939453125,9.730035546875,-0.699106884765625
4.192817643907,-0.0909796630859375,9.55765302734375,-0.751779321289062
4.1950754314504,0.028730419921875,9.58159504394531,-0.775721337890625
4.19733321899381,-0.0622492431640625,9.73482395019531,-0.86191259765625
4.19952449112922,-0.076614453125,9.84974562988281,-0.914585034179687
4.20171576326464,-0.0718260498046875,9.86889924316406,-1.03908352050781
4.20390703540005,-0.138863696289063,9.93114848632812,-0.890643017578125
4.20609821324293,-0.110133276367187,9.88805285644531,-0.560243188476563
4.20828939108582,-0.13407529296875,9.80186159667969,-0.51714755859375
4.2104805689287,-0.1149216796875,9.7683427734375,-0.59376201171875
4.21267166593391,-0.17238251953125,9.82580361328125,-0.761356127929687
4.21486276293911,-0.0622492431640625,9.86889924316406,-0.842758984375
4.21705385994432,-0.129286889648437,9.87847604980469,-0.828393774414062
4.2192448329261,-0.110133276367187,9.85932243652344,-0.833182177734375
4.22143580590787,-0.143652099609375,9.87368764648437,-0.818816967773437
4.22362677888964,-0.13407529296875,9.8449572265625,-0.809240161132812
4.22588537893304,-0.119710083007812,9.8449572265625,-0.837970581054687
4.22814397897645,-0.1149216796875,9.85453403320312,-0.86191259765625
4.23040257901985,-0.1149216796875,9.883264453125,-0.799663354492188
4.23251455417176,-0.124498486328125,9.88805285644531,-0.866701000976562
4.23462652932367,-0.13407529296875,9.88805285644531,-0.82360537109375
4.23673850447558,-0.1149216796875,9.89762966308594,-0.814028564453125
4.23877386851638,-0.158017309570312,9.84016882324219,-0.809240161132812
4.24080923255718,-0.1149216796875,9.87847604980469,-0.751779321289062
4.24284459659798,-0.158017309570312,9.90241806640625,-0.809240161132812
4.24480385234884,-0.124498486328125,9.98382092285156,-0.8044517578125
4.24676310809971,-0.129286889648437,10.0221281494141,-0.905008227539062
4.24872236385058,-0.129286889648437,10.0843773925781,-0.837970581054687
4.25067922843391,-0.143652099609375,10.0556469726563,-0.799663354492188
4.25263609301725,-0.110133276367187,10.0891657958984,-0.684741674804688
4.25459295760058,-0.148440502929687,10.0460701660156,-0.656011254882812
4.25661911602072,-0.167594116210937,10.036493359375,-0.665588061523437
4.25864527444086,-0.15322890625,10.0460701660156,-0.713472094726562
4.260671432861,-0.17238251953125,10.0460701660156,-0.775721337890625
4.26269848244867,-0.17238251953125,10.1226846191406,-0.756567724609375
4.26472553203634,-0.220266552734375,10.1418382324219,-0.909796630859375
4.26675258162401,-0.215478149414062,10.1274730224609,-0.828393774414062
4.26878096679111,-0.148440502929687,10.1657802490234,-0.799663354492188
4.27080935195821,-0.220266552734375,10.1418382324219,-0.761356127929687
4.27283773712531,-0.1915361328125,10.1562034423828,-0.713472094726562
4.27486694473165,-0.158017309570312,10.1035310058594,-0.641646044921875
4.27689615233798,-0.15322890625,10.0939541992188,-0.684741674804688
4.27892535994432,-0.124498486328125,10.1226846191406,-0.70868369140625
4.28095538023512,-0.162805712890625,10.1035310058594,-0.770932934570312
4.28298540052592,-0.119710083007812,10.0700121826172,-0.82360537109375
4.28501542081671,-0.110133276367187,10.1083194091797,-0.852335791015625
4.28711543974033,-0.158017309570312,10.1083194091797,-0.78529814453125
4.28921545866394,-0.181959326171875,10.0652237792969,-0.742202514648437
4.29131547758755,-0.215478149414062,10.0269165527344,-0.723048901367187
4.29342271549987,-0.229843359375,10.0221281494141,-0.761356127929687
4.2955299534122,-0.272938989257812,10.0843773925781,-0.833182177734375
4.29763719132453,-0.277727392578125,10.0843773925781,-0.809240161132812
4.29974581089918,-0.316034619140625,10.1131078125,-0.775721337890625
4.30185443047384,-0.335188232421875,10.0939541992188,-0.828393774414062
4.30396305004849,-0.354341845703125,10.0795889892578,-0.78529814453125
4.30605292265049,-0.383072265625,10.0891657958984,-0.756567724609375
4.30814279525248,-0.368707055664062,10.0939541992188,-0.694318481445312
4.31023266785448,-0.40222587890625,10.0843773925781,-0.742202514648437
4.31229697016568,-0.387860668945312,10.0843773925781,-0.718260498046875
4.31436127247687,-0.397437475585937,10.036493359375,-0.723048901367187
4.31642557478807,-0.368707055664062,10.0412817626953,-0.689530078125
4.31853442721863,-0.383072265625,10.0221281494141,-0.742202514648437
4.32064327964918,-0.392649072265625,9.95509050292969,-0.679953271484375
4.32275213207974,-0.378283862304687,9.98860932617187,-0.718260498046875
4.32486371194085,-0.368707055664062,9.99339772949219,-0.694318481445312
4.32697529180196,-0.383072265625,9.9981861328125,-0.718260498046875
4.32908687166307,-0.354341845703125,9.94072529296875,-0.675164868164063
4.3311985798879,-0.3447650390625,9.93593688964844,-0.660799658203125
4.33331028811273,-0.354341845703125,9.90720646972656,-0.660799658203125
4.33542199633755,-0.272938989257812,9.85453403320312,-0.675164868164063
4.3375372423228,-0.301669409179687,9.86411083984375,-0.713472094726562
4.33965248830804,-0.258573779296875,9.82580361328125,-0.70868369140625
4.34176773429329,-0.24899697265625,9.8449572265625,-0.684741674804688
4.34388382739225,-0.17238251953125,9.80665,-0.63206923828125
4.34599992049121,-0.162805712890625,9.80665,-0.598550415039062
4.34811601359017,-0.119710083007812,9.77791958007812,-0.627280834960937
4.35014722224902,-0.086191259765625,9.79707319335937,-0.641646044921875
4.35217843090787,-0.028730419921875,9.7683427734375,-0.699106884765625
4.35420963956673,-0.009576806640625,9.78270798339844,-0.612915625
4.35623717081673,0.0430956298828125,9.77791958007812,-0.675164868164063
4.35826470206673,0.05746083984375,9.72524714355469,-0.699106884765625
4.36029223331673,0.110133276367187,9.79707319335937,-0.636857641601562
4.36231640801291,0.119710083007812,9.82101520996094,-0.656011254882812
4.36434058270909,0.181959326171875,9.84974562988281,-0.617704028320312
4.36636475740527,0.15322890625,9.84974562988281,-0.584185205078125
4.36838833075597,0.110133276367187,9.90720646972656,-0.641646044921875
4.37041190410666,0.181959326171875,9.91199487304687,-0.622492431640625
4.37243547745736,0.205901342773437,9.90720646972656,-0.656011254882812
4.37445788576899,0.181959326171875,9.91678327636719,-0.656011254882812
4.37648029408062,0.21068974609375,9.94072529296875,-0.55545478515625
4.37850270239226,0.196324536132812,9.98382092285156,-0.584185205078125
4.38059303333844,0.21068974609375,10.0221281494141,-0.560243188476563
4.38268336428462,0.225054956054687,10.036493359375,-0.636857641601562
4.3847736952308,0.201112939453125,9.92636008300781,-0.55545478515625
4.38686489173688,0.225054956054687,9.89284125976562,-0.541089575195312
4.38895608824295,0.215478149414062,9.95987890625,-0.569819995117188
4.39104728474903,0.229843359375,9.90241806640625,-0.5746083984375
4.39311844919131,0.143652099609375,9.94072529296875,-0.59376201171875
4.39518961363358,0.162805712890625,9.94551369628906,-0.756567724609375
4.39726077807586,0.158017309570312,9.99339772949219,-0.74699091796875
4.39930468372907,0.124498486328125,9.97903251953125,-0.7278373046875
4.40134858938228,0.0718260498046875,10.0508585693359,-0.694318481445312
4.4033924950355,0.05746083984375,10.0508585693359,-0.675164868164063
4.40539180189313,0.0814028564453125,9.94551369628906,-0.70868369140625
4.40739110875077,0.01915361328125,10.0221281494141,-0.694318481445312
4.40939041560841,-0.0143652099609375,10.0652237792969,-0.694318481445312
4.41142072284583,-0.0526724365234375,10.0412817626953,-0.7278373046875
4.41345103008324,-0.0430956298828125,10.0412817626953,-0.78529814453125
4.41548133732065,0.0047884033203125,10.036493359375,-0.76614453125
4.41751148863359,-0.0335188232421875,10.0508585693359,-0.76614453125
4.41954163994652,-0.0622492431640625,9.98860932617187,-0.699106884765625
4.42157179125946,-0.0335188232421875,9.98860932617187,-0.723048901367187
4.42360116663923,-0.13407529296875,10.0077629394531,-0.70868369140625
4.42563054201901,-0.1149216796875,10.0460701660156,-0.761356127929687
4.42765991739879,-0.119710083007812,10.0077629394531,-0.837970581054687
4.42969016419783,-0.15322890625,10.0556469726563,-0.737414111328125
4.43172041099688,-0.167594116210937,10.1514150390625,-0.699106884765625
4.43375065779592,-0.067037646484375,10.0795889892578,-0.660799658203125
4.43578056800643,-0.05746083984375,10.0221281494141,-0.694318481445312
4.43781047821693,-0.0526724365234375,9.98382092285156,-0.723048901367187
4.43984038842744,-0.0430956298828125,10.0077629394531,-0.665588061523437
4.44193879446042,-0.0622492431640625,9.90720646972656,-0.737414111328125
4.44403720049341,-0.0239420166015625,9.89284125976562,-0.82360537109375
4.4461356065264,-0.0335188232421875,9.9215716796875,-0.885854614257812
4.44822758959932,0.0047884033203125,9.94072529296875,-0.948103857421875
4.45031957267224,-0.067037646484375,9.99339772949219,-0.9193734375
4.45241155574515,-0.0335188232421875,9.94072529296875,-0.90021982421875
4.45446276060627,-0.110133276367187,9.84974562988281,-0.78529814453125
4.45651396546738,-0.0335188232421875,9.79707319335937,-0.852335791015625
4.45856517032849,-0.158017309570312,9.91678327636719,-0.790086547851562
4.46060564439533,-0.143652099609375,9.95509050292969,-0.76614453125
4.46264611846217,-0.162805712890625,9.9215716796875,-0.818816967773437
4.46468659252901,-0.143652099609375,9.98382092285156,-0.852335791015625
4.46672622501599,-0.186747729492187,9.98860932617187,-0.790086547851562
4.46876585750297,-0.13407529296875,9.88805285644531,-0.713472094726562
4.47080548998995,-0.181959326171875,9.91199487304687,-0.660799658203125
4.47290899503552,-0.158017309570312,9.87368764648437,-0.675164868164063
4.4750125000811,-0.15322890625,9.86889924316406,-0.7278373046875
4.47711600512667,-0.138863696289063,10.0412817626953,-0.732625708007812
4.47922234252901,-0.100556469726563,10.1131078125,-0.761356127929687
4.48132867993136,-0.0526724365234375,10.1131078125,-0.78529814453125
4.4834350173337,-0.067037646484375,10.1801454589844,-0.756567724609375
4.48551502471217,-0.105344873046875,10.1131078125,-0.679953271484375
4.48759503209065,-0.0909796630859375,9.98860932617187,-0.5746083984375
4.48967503946912,-0.09576806640625,9.96466730957031,-0.584185205078125
4.49168298554117,-0.047884033203125,9.99339772949219,-0.67037646484375
4.49369093161321,-0.0239420166015625,9.93593688964844,-0.74699091796875
4.49569887768526,-0.110133276367187,9.94551369628906,-0.842758984375
4.49766731404594,-0.09576806640625,10.0077629394531,-0.818816967773437
4.49963575040662,-0.100556469726563,10.0125513427734,-0.809240161132812
4.50160418676729,-0.0718260498046875,10.1753570556641,-0.679953271484375
4.50362685696044,-0.0909796630859375,10.26633671875,-0.550666381835937
4.50564952715358,-0.076614453125,10.1083194091797,-0.536301171875
4.50767219734672,-0.1149216796875,9.91678327636719,-0.526724365234375
4.50969269479681,-0.076614453125,9.77791958007812,-0.550666381835937
4.5117131922469,-0.100556469726563,9.77791958007812,-0.507570751953125
4.51373368969698,-0.138863696289063,9.69651672363281,-0.63206923828125
4.51575323863361,-0.17238251953125,9.77791958007812,-0.8044517578125
4.51777278757025,-0.167594116210937,9.9215716796875,-0.790086547851562
4.51979233650688,-0.215478149414062,10.0221281494141,-0.646434448242187
4.52181189444958,-0.220266552734375,10.0125513427734,-0.502782348632812
4.52383145239229,-0.28730419921875,10.0173397460938,-0.383072265625
4.525851010335,-0.2681505859375,9.97424411621094,-0.488417138671875
4.52784141653075,-0.3064578125,9.92636008300781,-0.474051928710937
4.52983182272649,-0.2681505859375,9.93593688964844,-0.59376201171875
4.53182222892224,-0.28730419921875,9.91678327636719,-0.512359155273437
4.53385317994944,-0.296881005859375,9.88805285644531,-0.603338818359375
4.53588413097664,-0.277727392578125,9.90720646972656,-0.627280834960937
4.53791508200384,-0.277727392578125,9.95030209960937,-0.660799658203125
4.53994572179695,-0.28730419921875,9.93593688964844,-0.67037646484375
4.54197636159007,-0.28730419921875,9.91678327636719,-0.7278373046875
4.54400700138318,-0.3064578125,9.93593688964844,-0.646434448242187
4.5460374540199,-0.330399829101562,9.96945571289062,-0.660799658203125
4.54806790665662,-0.292092602539062,9.93593688964844,-0.684741674804688
4.55009835929333,-0.301669409179687,9.91678327636719,-0.70868369140625
4.55212846503335,-0.292092602539062,9.94072529296875,-0.770932934570312
4.55415857077337,-0.330399829101562,9.90241806640625,-0.76614453125
4.55618867651338,-0.296881005859375,9.95509050292969,-0.8044517578125
4.55821873478161,-0.292092602539062,9.93114848632812,-0.794874951171875
4.56024879304984,-0.32561142578125,9.97903251953125,-0.770932934570312
4.56227885131807,-0.28730419921875,10.0029745361328,-0.718260498046875
4.56437742618786,-0.253785375976562,9.99339772949219,-0.770932934570312
4.56647600105765,-0.201112939453125,10.0077629394531,-0.790086547851562
4.56857457592744,-0.234631762695312,10.0077629394531,-0.794874951171875
4.57065732706677,-0.220266552734375,10.0173397460938,-0.675164868164063
4.57274007820609,-0.229843359375,10.0460701660156,-0.775721337890625
4.57482282934541,-0.186747729492187,10.0077629394531,-0.732625708007812
4.5769343791501,-0.201112939453125,9.97903251953125,-0.723048901367187
4.57904592895479,-0.201112939453125,9.97903251953125,-0.742202514648437
4.58115747875948,-0.196324536132812,9.9215716796875,-0.756567724609375
4.58327215280462,-0.158017309570312,9.98382092285156,-0.74699091796875
4.58538682684976,-0.129286889648437,9.97903251953125,-0.703895288085937
4.58750150089489,-0.167594116210937,9.98860932617187,-0.737414111328125
4.58961648440184,-0.162805712890625,10.0029745361328,-0.732625708007812
4.59173146790878,-0.119710083007812,9.99339772949219,-0.780509741210937
4.59384645141573,-0.110133276367187,9.98860932617187,-0.76614453125
4.59596143546521,-0.138863696289063,9.95987890625,-0.732625708007812
4.59807641951469,-0.129286889648437,9.95509050292969,-0.790086547851562
4.60019140356417,-0.100556469726563,10.0269165527344,-0.78529814453125
4.6023064227699,-0.110133276367187,10.0221281494141,-0.703895288085937
4.60442144197563,-0.09576806640625,10.0125513427734,-0.74699091796875
4.60653646118136,-0.129286889648437,10.0556469726563,-0.74699091796875
4.60858345879421,-0.1149216796875,10.0029745361328,-0.713472094726562
4.61063045640705,-0.13407529296875,9.99339772949219,-0.70868369140625
4.6126774540199,-0.129286889648437,10.0173397460938,-0.703895288085937
4.61472330721001,-0.119710083007812,9.96945571289062,-0.732625708007812
4.61676916040011,-0.138863696289063,9.95509050292969,-0.684741674804688
4.61881501359021,-0.143652099609375,9.95987890625,-0.7278373046875
4.62195722881374,-0.143652099609375,9.883264453125,-0.679953271484375
4.62509944403726,-0.13407529296875,9.86411083984375,-0.679953271484375
4.62824165926078,-0.162805712890625,9.86411083984375,-0.713472094726562
4.63035067808674,-0.158017309570312,9.91678327636719,-0.675164868164063
4.63245969691269,-0.205901342773437,9.91678327636719,-0.742202514648437
4.63456871573865,-0.177170922851562,9.91678327636719,-0.742202514648437
4.63664597159802,-0.215478149414062,9.96466730957031,-0.756567724609375
4.6387232274574,-0.229843359375,9.93593688964844,-0.74699091796875
4.64080048331677,-0.215478149414062,9.96466730957031,-0.684741674804688
4.64280634871391,-0.21068974609375,9.96466730957031,-0.737414111328125
4.64481221411104,-0.272938989257812,9.9981861328125,-0.76614453125
4.64681807950818,-0.277727392578125,9.9981861328125,-0.794874951171875
4.64878585620089,-0.21068974609375,9.9981861328125,-0.732625708007812
4.65075363289359,-0.181959326171875,10.0173397460938,-0.78529814453125
4.6527214095863,-0.229843359375,10.0412817626953,-0.82360537109375
4.65474705921738,-0.167594116210937,10.0460701660156,-0.809240161132812
4.65677270884845,-0.220266552734375,10.0460701660156,-0.837970581054687
4.65879835847953,-0.234631762695312,10.0556469726563,-0.847547387695312
4.6608944900442,-0.143652099609375,10.0412817626953,-0.842758984375
4.66299062160887,-0.167594116210937,10.0221281494141,-0.852335791015625
4.66508675317354,-0.177170922851562,10.0412817626953,-0.857124194335937
4.66725925946694,-0.181959326171875,9.9981861328125,-0.857124194335937
4.66943176576034,-0.129286889648437,9.97424411621094,-0.799663354492188
4.67160427205375,-0.138863696289063,9.95987890625,-0.751779321289062
4.67377749481851,-0.15322890625,9.98382092285156,-0.799663354492188
4.67595071758326,-0.143652099609375,9.98860932617187,-0.799663354492188
4.67812394034802,-0.158017309570312,10.0317049560547,-0.809240161132812
4.68029725398734,-0.15322890625,10.0173397460938,-0.833182177734375
4.68247056762667,-0.167594116210937,9.98860932617187,-0.761356127929687
4.68464388126599,-0.143652099609375,9.94551369628906,-0.74699091796875
4.68679542513896,-0.158017309570312,9.95509050292969,-0.770932934570312
4.68894696901194,-0.0909796630859375,9.95987890625,-0.761356127929687
4.69109851288491,-0.09576806640625,9.93114848632812,-0.761356127929687
4.69316060735829,-0.105344873046875,9.98860932617187,-0.76614453125
4.69522270183167,-0.138863696289063,9.91678327636719,-0.660799658203125
4.69728479630505,-0.086191259765625,9.98382092285156,-0.67037646484375
4.70237906990531,-0.105344873046875,9.89284125976562,-0.584185205078125
4.70747334350557,-0.124498486328125,9.86889924316406,-0.588973608398437
4.71256761710583,-0.0909796630859375,9.89284125976562,-0.656011254882812
4.71880169392875,-0.129286889648437,9.81143840332031,-0.622492431640625
4.72503577075167,-0.105344873046875,9.82580361328125,-0.694318481445312
4.73126984757458,-0.0622492431640625,9.85932243652344,-0.737414111328125
4.73344594078205,-0.05746083984375,9.90720646972656,-0.646434448242187
4.73562203398951,-0.09576806640625,9.86889924316406,-0.656011254882812
4.73779812719698,-0.05746083984375,9.87368764648437,-0.679953271484375
4.73995501970728,-0.047884033203125,9.85453403320312,-0.588973608398437
4.74211191221759,-0.047884033203125,9.89762966308594,-0.636857641601562
4.7442688047279,-0.0526724365234375,9.90241806640625,-0.584185205078125
4.74639810636364,-0.047884033203125,9.95987890625,-0.608127221679687
4.74852740799939,-0.05746083984375,9.98382092285156,-0.641646044921875
4.75065670963513,-0.0047884033203125,10.0460701660156,-0.55545478515625
4.75277833007784,0.0047884033203125,10.0269165527344,-0.63206923828125
4.75489995052055,0.01915361328125,10.1083194091797,-0.703895288085937
4.75702157096326,0.0,10.1131078125,-0.59376201171875
4.75914356787081,0.0622492431640625,10.0891657958984,-0.608127221679687
4.76126556477836,0.0430956298828125,10.1035310058594,-0.63206923828125
4.76338756168592,0.0814028564453125,10.0939541992188,-0.636857641601562
4.76550940662949,0.086191259765625,10.1131078125,-0.569819995117188
4.76763125157307,0.076614453125,10.0652237792969,-0.608127221679687
4.76975309651664,0.0814028564453125,10.0412817626953,-0.59376201171875
4.77187486805527,0.0526724365234375,10.0460701660156,-0.588973608398437
4.7739966395939,0.0047884033203125,10.0317049560547,-0.612915625
4.77611841113252,0.05746083984375,10.0173397460938,-0.608127221679687
4.78045710671629,0.028730419921875,10.1609918457031,-0.612915625
4.78479580230005,0.0430956298828125,10.1562034423828,-0.627280834960937
4.78913449788382,0.01915361328125,10.1657802490234,-0.622492431640625
4.79128371706785,0.009576806640625,10.1609918457031,-0.675164868164063
4.79343293625187,0.0335188232421875,10.1562034423828,-0.6512228515625
4.7955821554359,0.05746083984375,10.1609918457031,-0.689530078125
4.79769474354354,0.0239420166015625,10.0987426025391,-0.70868369140625
4.79980733165118,0.0335188232421875,10.0748005859375,-0.598550415039062
4.80191991975881,-0.0430956298828125,10.0604353759766,-0.689530078125
4.8040288264971,-0.0383072265625,10.0221281494141,-0.684741674804688
4.80613773323538,-0.0430956298828125,9.97903251953125,-0.70868369140625
4.80824663997366,-0.0814028564453125,9.95030209960937,-0.703895288085937
4.81035280924449,-0.067037646484375,9.91678327636719,-0.703895288085937
4.81245897851532,-0.0909796630859375,9.85453403320312,-0.67037646484375
4.81456514778616,-0.100556469726563,9.80186159667969,-0.70868369140625
4.81666995567461,-0.143652099609375,9.81143840332031,-0.675164868164063
4.81877476356307,-0.124498486328125,9.78270798339844,-0.7278373046875
4.82087957145152,-0.138863696289063,9.78749638671875,-0.70868369140625
4.82298415852835,-0.124498486328125,9.73961235351562,-0.713472094726562
4.82508874560517,-0.100556469726563,9.72045874023437,-0.713472094726562
4.82719333268199,-0.13407529296875,9.72045874023437,-0.718260498046875
4.83252078073429,-0.181959326171875,9.9215716796875,-0.770932934570312
4.83784822878659,-0.15322890625,9.89762966308594,-0.780509741210937
4.84317567683889,-0.138863696289063,9.93593688964844,-0.76614453125
4.84528608932805,-0.076614453125,9.95509050292969,-0.775721337890625
4.84739650181719,-0.143652099609375,9.9981861328125,-0.775721337890625
4.84950691430634,-0.15322890625,10.0029745361328,-0.742202514648437
4.85161659236624,-0.167594116210937,10.0460701660156,-0.770932934570312
4.85372627042613,-0.138863696289063,10.0652237792969,-0.723048901367187
4.85583594848603,-0.124498486328125,10.0460701660156,-0.780509741210937
4.85794554983152,-0.158017309570312,10.0748005859375,-0.723048901367187
4.860055151177,-0.124498486328125,10.0508585693359,-0.74699091796875
4.86216475252249,-0.148440502929687,10.1083194091797,-0.799663354492188
4.86423915833846,-0.158017309570312,10.1131078125,-0.799663354492188
4.86631356415443,-0.15322890625,10.0939541992188,-0.837970581054687
4.8683879699704,-0.124498486328125,10.0843773925781,-0.818816967773437
4.87049656887448,-0.148440502929687,10.0748005859375,-0.852335791015625
4.87260516777856,-0.124498486328125,10.0748005859375,-0.790086547851562
4.87471376668264,-0.124498486328125,10.0604353759766,-0.828393774414062
4.87682624118351,-0.100556469726563,10.0843773925781,-0.790086547851562
4.87893871568438,-0.138863696289063,10.0939541992188,-0.866701000976562
4.88105119018524,-0.076614453125,10.0748005859375,-0.809240161132812
4.88316388186276,-0.138863696289063,9.98382092285156,-0.828393774414062
4.88527657354028,-0.162805712890625,9.96466730957031,-0.76614453125
4.8873892652178,-0.13407529296875,10.0029745361328,-0.737414111328125
4.88950192385495,-0.138863696289063,9.9981861328125,-0.76614453125
4.8916145824921,-0.119710083007812,9.98382092285156,-0.76614453125
4.89372724112925,-0.138863696289063,9.94072529296875,-0.679953271484375
4.8958050504283,-0.167594116210937,9.93114848632812,-0.679953271484375
4.89788285972734,-0.143652099609375,9.90720646972656,-0.656011254882812
4.89996066902639,-0.17238251953125,9.87847604980469,-0.612915625
4.90214644642439,-0.186747729492187,9.85453403320312,-0.584185205078125
4.9043322238224,-0.181959326171875,9.82580361328125,-0.569819995117188
4.9065180012204,-0.186747729492187,9.84974562988281,-0.59376201171875
4.90870461878767,-0.201112939453125,9.79228479003906,-0.627280834960937
4.91089123635495,-0.181959326171875,9.79228479003906,-0.622492431640625
4.91307785392222,-0.158017309570312,9.78270798339844,-0.579396801757812
4.91526463859019,-0.17238251953125,9.75397756347656,-0.584185205078125
4.91745142325815,-0.143652099609375,9.7683427734375,-0.560243188476563
4.91963820792612,-0.067037646484375,9.75397756347656,-0.541089575195312
4.92182496579287,-0.13407529296875,9.81143840332031,-0.560243188476563
4.92401172365963,-0.086191259765625,9.83059201660156,-0.612915625
4.92619848152638,-0.09576806640625,9.80665,-0.5746083984375
4.92835173830806,-0.086191259765625,9.82580361328125,-0.622492431640625
4.93050499508975,-0.100556469726563,9.83538041992187,-0.608127221679687
4.93265825187143,-0.100556469726563,9.82101520996094,-0.5746083984375
4.93477612752247,-0.0430956298828125,9.85453403320312,-0.603338818359375
4.93689400317351,-0.110133276367187,9.83538041992187,-0.55545478515625
4.93901187882455,-0.129286889648437,9.84016882324219,-0.565031591796875
4.94113058064747,-0.0622492431640625,9.83059201660156,-0.579396801757812
4.94324928247038,-0.067037646484375,9.93114848632812,-0.51714755859375
4.9453679842933,-0.076614453125,9.90241806640625,-0.59376201171875
4.95076341341114,-0.119710083007812,9.93114848632812,-0.531512768554687
4.95615884252898,-0.086191259765625,9.95030209960937,-0.622492431640625
4.96155427164681,-0.076614453125,9.96466730957031,-0.598550415039062
4.96366594764508,-0.0526724365234375,9.96945571289062,-0.588973608398437
4.96577762364334,-0.0814028564453125,9.97903251953125,-0.636857641601562
4.96788929964161,-0.0622492431640625,9.99339772949219,-0.675164868164063
4.97007288471105,-0.0909796630859375,9.98382092285156,-0.6512228515625
4.97225646978049,-0.05746083984375,10.0077629394531,-0.656011254882812
4.97444005484994,-0.0909796630859375,9.98382092285156,-0.67037646484375
4.97662181407303,-0.0814028564453125,10.0173397460938,-0.675164868164063
4.97880357329612,-0.09576806640625,10.0556469726563,-0.7278373046875
4.98098533251921,-0.09576806640625,10.0508585693359,-0.732625708007812
4.98316532546625,-0.067037646484375,10.0221281494141,-0.70868369140625
4.9853453184133,-0.119710083007812,10.0317049560547,-0.689530078125
4.98752531136035,-0.105344873046875,9.9981861328125,-0.737414111328125
4.98970422422928,-0.086191259765625,10.0125513427734,-0.78529814453125
4.9918831370982,-0.076614453125,10.0077629394531,-0.761356127929687
4.99406204996713,-0.05746083984375,9.9981861328125,-0.684741674804688
4.99618085009734,-0.067037646484375,9.9981861328125,-0.7278373046875
4.99829965022755,-0.0430956298828125,9.96466730957031,-0.732625708007812
5.00041845035776,-0.0526724365234375,9.95509050292969,-0.78529814453125
5.00253489805741,-0.076614453125,9.94551369628906,-0.775721337890625
5.00465134575707,-0.0526724365234375,9.9215716796875,-0.732625708007812
5.00676779345672,-0.0622492431640625,9.94551369628906,-0.76614453125
5.0088834947371,-0.067037646484375,9.93593688964844,-0.756567724609375
5.01099919601748,-0.0718260498046875,9.93114848632812,-0.737414111328125
5.01311489729786,-0.0909796630859375,9.98860932617187,-0.699106884765625
5.01636861642764,-0.124498486328125,9.97903251953125,-0.70868369140625
5.01962233555741,-0.110133276367187,9.93593688964844,-0.656011254882812
5.02287605468718,-0.0909796630859375,9.98860932617187,-0.689530078125
5.02502593793371,-0.129286889648437,9.96466730957031,-0.732625708007812
5.02717582118024,-0.129286889648437,10.0125513427734,-0.689530078125
5.02932570442676,-0.15322890625,9.99339772949219,-0.675164868164063
5.03144273453744,-0.162805712890625,10.0125513427734,-0.675164868164063
5.03355976464812,-0.15322890625,10.0221281494141,-0.70868369140625
5.03567679475879,-0.148440502929687,10.0077629394531,-0.617704028320312
5.03779334912077,-0.124498486328125,9.95509050292969,-0.718260498046875
5.03990990348275,-0.119710083007812,9.95509050292969,-0.689530078125
5.04202645784473,-0.177170922851562,9.93114848632812,-0.646434448242187
5.04414295952659,-0.158017309570312,9.93593688964844,-0.723048901367187
5.04625946120844,-0.148440502929687,9.92636008300781,-0.684741674804688
5.0483759628903,-0.143652099609375,9.93114848632812,-0.679953271484375
5.05055713221539,-0.148440502929687,9.97424411621094,-0.737414111328125
5.05273830154048,-0.15322890625,9.94072529296875,-0.684741674804688
5.05491947086556,-0.17238251953125,9.93114848632812,-0.794874951171875
5.05706858821582,-0.110133276367187,9.95030209960937,-0.679953271484375
5.05921770556608,-0.158017309570312,10.0125513427734,-0.74699091796875
5.06136682291634,-0.0909796630859375,9.96945571289062,-0.6512228515625
5.06348055604352,-0.129286889648437,9.97424411621094,-0.699106884765625
5.06559428917069,-0.143652099609375,10.0077629394531,-0.67037646484375
5.06770802229786,-0.0814028564453125,9.99339772949219,-0.74699091796875
5.06982454459603,-0.110133276367187,9.99339772949219,-0.7278373046875
5.07194106689421,-0.0909796630859375,10.0077629394531,-0.742202514648437
5.07405758919239,-0.110133276367187,10.0460701660156,-0.742202514648437
5.07623996050315,-0.0718260498046875,10.036493359375,-0.756567724609375
5.07842233181392,-0.0622492431640625,10.0652237792969,-0.699106884765625
5.08060470312468,-0.0383072265625,10.0556469726563,-0.751779321289062
5.08278804600663,0.0,10.0748005859375,-0.770932934570312
5.08497138888858,-0.028730419921875,10.0700121826172,-0.761356127929687
5.08715473177052,-0.0335188232421875,10.0795889892578,-0.799663354492188
5.08930370382998,0.028730419921875,10.1035310058594,-0.8044517578125
5.09145267588944,-0.01915361328125,10.0843773925781,-0.8044517578125
5.0936016479489,0.009576806640625,10.0939541992188,-0.751779321289062
5.09571322167937,0.0239420166015625,10.0748005859375,-0.761356127929687
5.09782479540984,0.0335188232421875,10.0604353759766,-0.833182177734375
5.09993636914031,0.01915361328125,10.0317049560547,-0.723048901367187
5.10204457731088,0.0239420166015625,10.0508585693359,-0.809240161132812
5.10415278548146,0.05746083984375,10.0317049560547,-0.857124194335937
5.10626099365203,0.0143652099609375,10.0556469726563,-0.794874951171875
5.10836906168588,0.028730419921875,10.0173397460938,-0.770932934570312
5.11047712971974,0.0430956298828125,10.0700121826172,-0.74699091796875
5.11258519775359,0.0430956298828125,10.0125513427734,-0.756567724609375
5.11475962185299,-0.0239420166015625,10.0412817626953,-0.833182177734375
5.11693404595238,-0.0335188232421875,10.0221281494141,-0.775721337890625
5.11910847005177,0.009576806640625,9.98382092285156,-0.775721337890625
5.12133079839379,-0.0239420166015625,10.0317049560547,-0.770932934570312
5.1235531267358,-0.0047884033203125,9.97903251953125,-0.761356127929687
5.12577545507782,-0.009576806640625,9.97903251953125,-0.82360537109375
5.12796620247365,-0.028730419921875,9.98860932617187,-0.828393774414062
5.13015694986948,-0.0335188232421875,9.95509050292969,-0.837970581054687
5.13234769726532,-0.076614453125,9.94551369628906,-0.814028564453125
5.13453660790985,-0.0383072265625,9.95030209960937,-0.847547387695312
5.13672551855438,-0.076614453125,9.96945571289062,-0.8810662109375
5.13891442919891,-0.110133276367187,9.94551369628906,-0.8810662109375
5.141101442274,-0.186747729492187,9.98382092285156,-0.833182177734375
5.14328845534909,-0.158017309570312,9.96466730957031,-0.780509741210937
5.14547546842417,-0.162805712890625,9.97424411621094,-0.8044517578125
5.14766026014509,-0.181959326171875,9.97424411621094,-0.756567724609375
5.14984505186601,-0.21068974609375,9.98860932617187,-0.703895288085937
5.15202984358693,-0.253785375976562,9.97424411621094,-0.694318481445312
5.15432617295976,-0.24899697265625,9.95987890625,-0.732625708007812
5.15662250233259,-0.3064578125,9.9981861328125,-0.660799658203125
5.15891883170542,-0.2681505859375,9.95509050292969,-0.732625708007812
5.16118373269283,-0.320823022460937,9.96945571289062,-0.742202514648437
5.16344863368024,-0.335188232421875,9.95987890625,-0.70868369140625
5.16571353466766,-0.339976635742188,9.95509050292969,-0.679953271484375
5.17024098437468,-0.483628735351562,9.9981861328125,-0.713472094726562
5.17476843408171,-0.474051928710937,10.0700121826172,-0.684741674804688
5.17929588378874,-0.47884033203125,10.0748005859375,-0.703895288085937
5.18156076519065,-0.51714755859375,10.0795889892578,-0.665588061523437
5.18382564659256,-0.541089575195312,10.0843773925781,-0.656011254882812
5.18609052799447,-0.545877978515625,10.0795889892578,-0.63206923828125
5.18839015017329,-0.512359155273437,10.0748005859375,-0.646434448242187
5.1906897723521,-0.507570751953125,10.1083194091797,-0.6512228515625
5.19298939453092,-0.55545478515625,10.1131078125,-0.646434448242187
5.19525484939203,-0.627280834960937,10.1322614257812,-0.694318481445312
5.19752030425314,-0.656011254882812,10.1514150390625,-0.641646044921875
5.19978575911425,-0.622492431640625,10.1753570556641,-0.5746083984375
5.20243931016677,-0.598550415039062,10.1657802490234,-0.656011254882812
5.20509286121929,-0.617704028320312,10.1226846191406,-0.598550415039062
5.2077464122718,-0.526724365234375,10.1274730224609,-0.63206923828125
5.21695791544563,0.387860668945312,9.6151138671875,-0.972045874023437
5.22616941861946,0.359130249023437,9.62947907714844,-1.06302553710937
5.23538092179329,0.354341845703125,9.68215151367187,-1.09175595703125
5.23796181947124,0.292092602539062,9.78270798339844,-1.02471831054687
5.24054271714919,0.272938989257812,9.81143840332031,-1.07260234375
5.24312361482714,0.2681505859375,9.87847604980469,-1.08696755371094
5.24570498244866,0.220266552734375,9.92636008300781,-1.08696755371094
5.24828635007019,0.186747729492187,10.0077629394531,-1.09175595703125
5.25086771769171,0.13407529296875,10.0125513427734,-1.04866032714844
5.25344796378546,0.0909796630859375,10.036493359375,-1.07260234375
5.25602820987921,0.0526724365234375,10.0556469726563,-0.962469067382812
5.25860845597296,0.0718260498046875,10.1131078125,-0.833182177734375
5.26244375284796,-0.0622492431640625,10.0795889892578,-0.679953271484375
5.26627904972296,-0.0239420166015625,10.1274730224609,-0.59376201171875
5.27011434659796,-0.0909796630859375,10.0891657958984,-0.598550415039062
5.27262360755716,-0.0718260498046875,10.1131078125,-0.588973608398437
5.27513286851636,-0.0718260498046875,10.0556469726563,-0.59376201171875
5.27764212947556,-0.0622492431640625,10.0460701660156,-0.59376201171875
5.30838662928567,-0.076614453125,9.9215716796875,-0.6512228515625
5.33913112909578,-0.028730419921875,9.89762966308594,-0.67037646484375
5.36987562890589,-0.0047884033203125,9.91199487304687,-0.67037646484375
5.37229355881041,0.0,9.87847604980469,-0.565031591796875
5.37471148871492,-0.028730419921875,9.91199487304687,-0.59376201171875
5.37712941861943,-0.009576806640625,9.89762966308594,-0.641646044921875
5.37947783094582,-0.028730419921875,9.85932243652344,-0.612915625
5.38182624327221,-0.0047884033203125,9.883264453125,-0.59376201171875
5.3841746555986,-0.0383072265625,9.90720646972656,-0.579396801757812
5.38652230045537,-0.067037646484375,9.87368764648437,-0.622492431640625
5.38886994531214,-0.0239420166015625,9.85932243652344,-0.598550415039062
5.39121759016892,-0.028730419921875,9.86889924316406,-0.636857641601562
5.39356506640589,-0.028730419921875,9.91199487304687,-0.612915625
5.39591254264287,-0.05746083984375,9.89762966308594,-0.603338818359375
5.39826001887985,-0.067037646484375,9.90241806640625,-0.636857641601562
5.40067665093281,-0.067037646484375,9.9215716796875,-0.5746083984375
5.40309328298576,-0.05746083984375,9.91199487304687,-0.603338818359375
5.40550991503871,-0.0526724365234375,9.94072529296875,-0.660799658203125
5.40792734657083,-0.047884033203125,9.90720646972656,-0.588973608398437
5.41034477810295,-0.100556469726563,9.95030209960937,-0.59376201171875
5.41276220963506,-0.105344873046875,9.93593688964844,-0.63206923828125
5.41511060384079,-0.0909796630859375,9.91678327636719,-0.584185205078125
5.41745899804652,-0.100556469726563,9.93114848632812,-0.550666381835937
5.41980739225225,-0.100556469726563,9.95509050292969,-0.598550415039062
5.42215519379305,-0.0814028564453125,9.96466730957031,-0.608127221679687
5.42450299533384,-0.1149216796875,9.93114848632812,-0.588973608398437
5.42685079687464,-0.0814028564453125,9.95987890625,-0.59376201171875
5.42912251226093,-0.148440502929687,9.97903251953125,-0.5746083984375
5.43139422764721,-0.143652099609375,9.98382092285156,-0.617704028320312
5.4336659430335,-0.1149216796875,9.97424411621094,-0.656011254882812
5.43600151551614,-0.110133276367187,10.0077629394531,-0.63206923828125
5.43833708799877,-0.119710083007812,10.0077629394531,-0.646434448242187
5.44067266048141,-0.129286889648437,9.97424411621094,-0.617704028320312
5.44301154112377,-0.124498486328125,10.0317049560547,-0.6512228515625
5.44535042176613,-0.15322890625,10.0173397460938,-0.612915625
5.44768930240849,-0.129286889648437,10.0029745361328,-0.603338818359375
5.45009984808992,-0.129286889648437,10.0269165527344,-0.646434448242187
5.45251039377134,-0.086191259765625,10.0125513427734,-0.603338818359375
5.45492093945276,-0.124498486328125,10.0317049560547,-0.588973608398437
5.45733531553783,-0.15322890625,10.0173397460938,-0.588973608398437
5.4597496916229,-0.1149216796875,10.036493359375,-0.598550415039062
5.46216406770797,-0.100556469726563,10.0173397460938,-0.608127221679687
5.4645828713104,-0.086191259765625,10.0125513427734,-0.59376201171875
5.46700167491283,-0.100556469726563,10.0173397460938,-0.603338818359375
5.46942047851526,-0.105344873046875,10.036493359375,-0.641646044921875
5.47184039778609,-0.086191259765625,10.0077629394531,-0.617704028320312
5.47426031705692,-0.148440502929687,10.036493359375,-0.74699091796875
5.47668023632775,-0.129286889648437,10.0125513427734,-0.737414111328125
5.47905639154694,-0.110133276367187,10.0077629394531,-0.70868369140625
5.48143254676612,-0.0718260498046875,10.0460701660156,-0.622492431640625
5.48380870198531,-0.100556469726563,10.0125513427734,-0.67037646484375
5.4861682518985,-0.143652099609375,9.9981861328125,-0.703895288085937
5.4885278018117,-0.105344873046875,10.0077629394531,-0.641646044921875
5.4908873517249,-0.119710083007812,9.95509050292969,-0.622492431640625
5.49324320415545,-0.13407529296875,10.0125513427734,-0.67037646484375
5.49559905658601,-0.119710083007812,9.97903251953125,-0.6512228515625
5.49795490901657,-0.15322890625,9.97903251953125,-0.641646044921875
5.50155468202004,-0.09576806640625,9.98382092285156,-0.656011254882812
5.50515445502351,-0.162805712890625,9.96945571289062,-0.627280834960937
5.50875422802698,-0.138863696289063,9.98860932617187,-0.608127221679687
5.51116107958949,-0.119710083007812,9.98860932617187,-0.656011254882812
5.51356793115199,-0.09576806640625,9.95987890625,-0.612915625
5.51597478271449,-0.119710083007812,10.0125513427734,-0.579396801757812
5.51831966617803,-0.0814028564453125,9.99339772949219,-0.636857641601562
5.52066454964157,-0.138863696289063,10.0221281494141,-0.569819995117188
5.52300943310511,-0.105344873046875,9.9981861328125,-0.579396801757812
5.5252809625105,-0.129286889648437,10.0269165527344,-0.584185205078125
5.52755249191588,-0.1149216796875,9.99339772949219,-0.603338818359375
5.52982402132126,-0.110133276367187,9.9981861328125,-0.584185205078125
5.53201842475008,-0.124498486328125,10.0221281494141,-0.608127221679687
5.5342128281789,-0.09576806640625,10.0077629394531,-0.622492431640625
5.53640723160772,-0.09576806640625,9.99339772949219,-0.612915625
5.53874904985859,-0.0814028564453125,10.0269165527344,-0.608127221679687
5.54109086810946,-0.09576806640625,9.99339772949219,-0.603338818359375
5.54343268636033,-0.129286889648437,10.0460701660156,-0.636857641601562
5.54577493353915,-0.086191259765625,10.0221281494141,-0.560243188476563
5.54811718071797,-0.0814028564453125,9.9981861328125,-0.588973608398437
5.55045942789679,-0.0718260498046875,9.97903251953125,-0.63206923828125
5.55280141585252,-0.0909796630859375,9.97903251953125,-0.603338818359375
5.55514340380825,-0.076614453125,9.97424411621094,-0.565031591796875
5.55748539176398,-0.0718260498046875,9.9981861328125,-0.622492431640625
5.55990013688117,-0.086191259765625,9.94551369628906,-0.579396801757812
5.56231488199835,-0.105344873046875,9.98382092285156,-0.598550415039062
5.56472962711554,-0.047884033203125,9.92636008300781,-0.598550415039062
5.56715161759406,-0.047884033203125,9.95509050292969,-0.608127221679687
5.56957360807257,-0.0622492431640625,9.94072529296875,-0.545877978515625
5.57199559855109,-0.0526724365234375,9.94551369628906,-0.565031591796875
5.57441880387335,-0.0526724365234375,9.95509050292969,-0.526724365234375
5.57684200919562,-0.047884033203125,9.95030209960937,-0.584185205078125
5.57926521451788,-0.0239420166015625,9.93593688964844,-0.541089575195312
5.58168369787291,-0.05746083984375,9.90720646972656,-0.612915625
5.58410218122795,-0.01915361328125,9.95509050292969,-0.521935961914062
5.58652066458298,-0.0143652099609375,9.93593688964844,-0.565031591796875
5.59245682206996,0.0,9.88805285644531,-0.47884033203125
5.59839297955694,0.0335188232421875,9.91678327636719,-0.488417138671875
5.60432913704393,0.0047884033203125,9.94072529296875,-0.526724365234375
5.60661062076789,0.0526724365234375,9.94551369628906,-0.569819995117188
5.60889210449185,0.028730419921875,9.92636008300781,-0.450109912109375
5.61117358821581,0.0335188232421875,9.93593688964844,-0.445321508789062
5.61345106727397,-0.0335188232421875,9.94551369628906,-0.526724365234375
5.61572854633213,0.0047884033203125,9.95509050292969,-0.488417138671875
5.61800602539029,-0.0143652099609375,9.95030209960937,-0.531512768554687
5.62263999896885,-0.0383072265625,9.94551369628906,-0.464475122070312
5.62727397254741,-0.028730419921875,9.97424411621094,-0.521935961914062
5.63190794612597,-0.028730419921875,9.97903251953125,-0.502782348632812
5.63424094243673,-0.05746083984375,9.97424411621094,-0.4979939453125
5.63657393874749,-0.0383072265625,9.97424411621094,-0.541089575195312
5.63890693505826,-0.0814028564453125,9.95030209960937,-0.521935961914062
5.6412419200843,-0.0239420166015625,9.96945571289062,-0.4979939453125
5.64357690511034,-0.047884033203125,9.97424411621094,-0.507570751953125
5.64591189013639,-0.076614453125,9.95987890625,-0.474051928710937
5.6482507497284,-0.05746083984375,9.98860932617187,-0.531512768554687
5.65058960932042,-0.086191259765625,9.98382092285156,-0.47884033203125
5.65292846891243,-0.0718260498046875,9.97424411621094,-0.44053310546875
5.65520125200705,-0.076614453125,10.0317049560547,-0.507570751953125
5.65747403510167,-0.100556469726563,10.0173397460938,-0.4979939453125
5.65974681819629,-0.0526724365234375,9.98860932617187,-0.493205541992187
5.66201132047493,-0.09576806640625,9.96945571289062,-0.536301171875
5.66427582275358,-0.143652099609375,10.0508585693359,-0.531512768554687
5.66654032503223,-0.100556469726563,9.98860932617187,-0.464475122070312
5.66880430148622,-0.105344873046875,9.9981861328125,-0.521935961914062
5.67106827794021,-0.0718260498046875,10.0125513427734,-0.550666381835937
5.6733322543942,-0.076614453125,10.0125513427734,-0.5746083984375
5.67559608794455,-0.110133276367187,10.0317049560547,-0.579396801757812
5.67785992149489,-0.129286889648437,10.0125513427734,-0.5746083984375
5.68012375504524,-0.086191259765625,9.97424411621094,-0.565031591796875
5.68238757405566,-0.05746083984375,10.0269165527344,-0.588973608398437
5.68465139306607,-0.09576806640625,9.9981861328125,-0.584185205078125
5.68691521207649,-0.0718260498046875,9.9981861328125,-0.541089575195312
5.68917889219802,-0.076614453125,10.0077629394531,-0.569819995117188
5.69144257231954,-0.0622492431640625,9.98382092285156,-0.617704028320312
5.69370625244107,-0.100556469726563,9.96945571289062,-0.512359155273437
5.69596988937684,-0.0718260498046875,9.9981861328125,-0.531512768554687
5.6982335263126,-0.0622492431640625,9.95987890625,-0.603338818359375
5.70049716324836,-0.0335188232421875,9.98382092285156,-0.59376201171875
5.70282866183777,-0.0526724365234375,10.0077629394531,-0.536301171875
5.70516016042718,0.0047884033203125,9.97903251953125,-0.512359155273437
5.70749165901659,0.0,9.9981861328125,-0.550666381835937
5.70980099154968,-0.0047884033203125,9.97903251953125,-0.541089575195312
5.71211032408277,-0.047884033203125,9.96466730957031,-0.512359155273437
5.71441965661587,-0.076614453125,9.98860932617187,-0.545877978515625
5.7166979686954,-0.0430956298828125,9.95987890625,-0.44053310546875
5.71897628077494,-0.0047884033203125,10.0029745361328,-0.531512768554687
5.72125459285447,-0.047884033203125,9.94072529296875,-0.4979939453125
5.72352496459926,0.0,9.96945571289062,-0.541089575195312
5.72579533634405,-0.0383072265625,9.9981861328125,-0.598550415039062
5.72806570808884,-0.01915361328125,9.95030209960937,-0.565031591796875
5.73033568155889,-0.0239420166015625,9.95030209960937,-0.512359155273437
5.73260565502895,-0.0526724365234375,9.95509050292969,-0.579396801757812
5.734875628499,-0.0383072265625,9.95509050292969,-0.526724365234375
5.73721525122035,-0.0047884033203125,9.96466730957031,-0.579396801757812
5.73955487394171,-0.01915361328125,9.95509050292969,-0.545877978515625
5.74189449666306,-0.05746083984375,9.96945571289062,-0.545877978515625
5.74423527655673,-0.01915361328125,9.93593688964844,-0.430956298828125
5.74657605645039,-0.0718260498046875,9.97424411621094,-0.579396801757812
5.74891683634405,-0.028730419921875,9.95030209960937,-0.550666381835937
5.75122285999857,-0.0526724365234375,9.97903251953125,-0.565031591796875
5.75352888365308,-0.01915361328125,9.97424411621094,-0.565031591796875
5.75583490730759,-0.009576806640625,9.97903251953125,-0.588973608398437
5.75810391148511,-0.0239420166015625,9.94072529296875,-0.59376201171875
5.76037291566263,-0.0143652099609375,9.99339772949219,-0.588973608398437
5.76264191984015,-0.0335188232421875,9.96466730957031,-0.5746083984375
5.76490868275248,0.0047884033203125,9.97903251953125,-0.488417138671875
5.7671754456648,-0.0143652099609375,9.9981861328125,-0.536301171875
5.76944220857713,-0.0383072265625,10.0125513427734,-0.521935961914062
5.77177786705152,-0.028730419921875,9.98382092285156,-0.569819995117188
5.77411352552591,-0.0239420166015625,10.0029745361328,-0.51714755859375
5.7764491840003,-0.0718260498046875,9.98860932617187,-0.5746083984375
5.77878854527417,-0.0143652099609375,9.98382092285156,-0.536301171875
5.78112790654804,-0.0047884033203125,10.0125513427734,-0.55545478515625
5.78346726782191,-0.0335188232421875,10.0173397460938,-0.569819995117188
5.78573586857061,-0.067037646484375,10.0173397460938,-0.536301171875
5.7880044693193,-0.0622492431640625,10.0125513427734,-0.541089575195312
5.790273070068,-0.067037646484375,10.0221281494141,-0.545877978515625
5.79246906290654,-0.05746083984375,10.0221281494141,-0.507570751953125
5.79466505574508,-0.0430956298828125,10.0317049560547,-0.521935961914062
5.79686104858363,-0.05746083984375,10.0508585693359,-0.550666381835937
5.79905597930194,-0.105344873046875,10.0029745361328,-0.512359155273437
5.80125091002026,-0.100556469726563,10.0221281494141,-0.550666381835937
5.80344584073858,-0.09576806640625,10.0125513427734,-0.617704028320312
5.80570560484448,-0.0909796630859375,9.99339772949219,-0.536301171875
5.80796536895038,-0.076614453125,9.99339772949219,-0.536301171875
5.81022513305629,-0.119710083007812,10.0173397460938,-0.531512768554687
5.81248774796514,-0.0909796630859375,9.97903251953125,-0.536301171875
5.81475036287399,-0.100556469726563,10.0317049560547,-0.531512768554687
5.81701297778285,-0.105344873046875,9.95509050292969,-0.560243188476563
5.81927459100985,-0.138863696289063,10.0029745361328,-0.59376201171875
5.82153620423684,-0.1149216796875,9.9981861328125,-0.603338818359375
5.82379781746384,-0.105344873046875,9.97424411621094,-0.622492431640625
5.82606073125507,-0.09576806640625,9.99339772949219,-0.584185205078125
5.82832364504631,-0.09576806640625,10.0029745361328,-0.55545478515625
5.83058655883754,-0.110133276367187,10.0412817626953,-0.502782348632812
5.83284172885436,-0.1149216796875,10.0173397460938,-0.541089575195312
5.83509689887118,-0.15322890625,10.0077629394531,-0.6512228515625
5.837352068888,-0.124498486328125,10.0029745361328,-0.565031591796875
5.83964105167609,-0.1149216796875,10.0460701660156,-0.569819995117188
5.84193003446417,-0.124498486328125,9.98382092285156,-0.569819995117188
5.84421901725226,-0.158017309570312,10.036493359375,-0.526724365234375
5.84648763292066,-0.167594116210937,10.036493359375,-0.5746083984375
5.84875624858907,-0.138863696289063,10.0173397460938,-0.545877978515625
5.85102486425747,-0.162805712890625,9.9981861328125,-0.5746083984375
5.85329306195712,-0.13407529296875,10.0029745361328,-0.526724365234375
5.85556125965677,-0.138863696289063,10.0604353759766,-0.560243188476563
5.85782945735643,-0.1149216796875,10.0077629394531,-0.526724365234375
5.86002227267761,-0.1149216796875,10.0077629394531,-0.531512768554687
5.86221508799879,-0.129286889648437,9.9981861328125,-0.541089575195312
5.86440790331997,-0.143652099609375,10.0029745361328,-0.560243188476563
5.8665992319875,-0.124498486328125,10.0317049560547,-0.536301171875
5.86879056065504,-0.076614453125,9.9981861328125,-0.512359155273437
5.87098188932258,-0.09576806640625,10.0173397460938,-0.550666381835937
5.8733192912323,-0.1149216796875,9.9981861328125,-0.545877978515625
5.87565669314202,-0.105344873046875,9.9981861328125,-0.531512768554687
5.87799409505174,-0.1149216796875,9.97903251953125,-0.4979939453125
5.8804090350474,-0.0718260498046875,9.9981861328125,-0.488417138671875
5.88282397504306,-0.0814028564453125,9.96466730957031,-0.469263525390625
5.88523891503872,-0.119710083007812,9.96945571289062,-0.569819995117188
5.88765770464376,-0.0814028564453125,9.94551369628906,-0.512359155273437
5.89007649424879,-0.086191259765625,9.98382092285156,-0.507570751953125
5.89249528385382,-0.09576806640625,9.93114848632812,-0.45968671875
5.89491589995625,-0.0526724365234375,9.95030209960937,-0.598550415039062
5.89733651605869,-0.086191259765625,9.94551369628906,-0.531512768554687
5.89975713216112,-0.138863696289063,9.95987890625,-0.531512768554687
5.9021779710283,-0.143652099609375,9.90720646972656,-0.627280834960937
5.90459880989549,-0.119710083007812,9.94551369628906,-0.526724365234375
5.90701964876268,-0.0909796630859375,9.90720646972656,-0.579396801757812
5.90939205235426,-0.1149216796875,9.91199487304687,-0.4979939453125
5.91176445594584,-0.148440502929687,9.92636008300781,-0.560243188476563
5.91413685953742,-0.129286889648437,9.92636008300781,-0.526724365234375
5.91649151350877,-0.09576806640625,9.93593688964844,-0.521935961914062
5.91884616748013,-0.09576806640625,9.94072529296875,-0.598550415039062
5.92120082145148,-0.0909796630859375,9.95509050292969,-0.565031591796875
5.92707593926289,-0.09576806640625,9.96466730957031,-0.603338818359375
5.93295105707431,-0.067037646484375,9.9215716796875,-0.493205541992187
5.93882617488572,-0.105344873046875,9.92636008300781,-0.545877978515625
5.94585686781107,-0.0718260498046875,9.95987890625,-0.541089575195312
5.95288756073641,-0.143652099609375,9.96466730957031,-0.536301171875
5.95991825366176,-0.086191259765625,9.96945571289062,-0.521935961914062
5.96226104836662,-0.110133276367187,9.96945571289062,-0.584185205078125
5.96460384307148,-0.09576806640625,9.95987890625,-0.636857641601562
5.96694663777635,-0.086191259765625,9.95030209960937,-0.55545478515625
5.96928740817565,-0.0814028564453125,9.98382092285156,-0.565031591796875
5.97162817857496,-0.119710083007812,9.94551369628906,-0.584185205078125
5.97396894897426,-0.110133276367187,9.92636008300781,-0.5746083984375
5.97624696492478,-0.0909796630859375,9.94072529296875,-0.5746083984375
5.9785249808753,-0.0814028564453125,9.97903251953125,-0.550666381835937
5.98080299682582,-0.047884033203125,9.95030209960937,-0.569819995117188
5.98308154424336,-0.100556469726563,9.94072529296875,-0.603338818359375
5.98536009166089,-0.110133276367187,9.96945571289062,-0.584185205078125
5.98763863907843,-0.0909796630859375,9.9981861328125,-0.55545478515625
5.98997768779805,-0.0622492431640625,9.95987890625,-0.569819995117188
5.99231673651767,-0.105344873046875,10.0029745361328,-0.565031591796875
5.99465578523728,-0.100556469726563,10.0125513427734,-0.541089575195312
5.99699585902201,-0.076614453125,9.95509050292969,-0.588973608398437
5.99933593280673,-0.110133276367187,9.98860932617187,-0.521935961914062
6.00167600659145,-0.13407529296875,9.98382092285156,-0.550666381835937
6.00401650539788,-0.0622492431640625,10.0173397460938,-0.536301171875
6.0063570042043,-0.0909796630859375,9.97424411621094,-0.55545478515625
6.00869750301072,-0.0909796630859375,9.96466730957031,-0.541089575195312
6.01103807733798,-0.138863696289063,9.98860932617187,-0.545877978515625
6.01337865166523,-0.067037646484375,9.95987890625,-0.603338818359375
6.01571922599249,-0.09576806640625,10.0077629394531,-0.59376201171875
6.01799342184753,-0.086191259765625,9.9981861328125,-0.536301171875
6.02026761770256,-0.100556469726563,9.98382092285156,-0.622492431640625
6.02254181355759,-0.0622492431640625,9.97424411621094,-0.545877978515625
6.02480546308017,-0.0718260498046875,9.97424411621094,-0.579396801757812
6.02706911260274,-0.047884033203125,10.0077629394531,-0.588973608398437
6.02933276212531,-0.0383072265625,10.0269165527344,-0.612915625
6.0315955650767,-0.0526724365234375,10.0029745361328,-0.608127221679687
6.03385836802809,-0.0622492431640625,10.0125513427734,-0.569819995117188
6.03612117097948,-0.0622492431640625,10.0221281494141,-0.617704028320312
6.03838426418694,-0.01915361328125,10.0125513427734,-0.6512228515625
6.04064735739441,-0.0526724365234375,9.97903251953125,-0.579396801757812
6.04291045060187,-0.0718260498046875,9.98860932617187,-0.598550415039062
6.04524564244215,-0.05746083984375,10.0029745361328,-0.608127221679687
6.04758083428243,-0.0526724365234375,10.0077629394531,-0.55545478515625
6.0499160261227,-0.047884033203125,10.0125513427734,-0.646434448242187
6.05225203328416,-0.076614453125,10.0317049560547,-0.598550415039062
6.05458804044562,-0.0622492431640625,10.0029745361328,-0.598550415039062
6.05692404760708,-0.0718260498046875,9.9981861328125,-0.531512768554687
6.0591169041609,-0.067037646484375,9.98382092285156,-0.565031591796875
6.06130976071472,-0.076614453125,10.0077629394531,-0.603338818359375
6.06350261726854,-0.076614453125,9.99339772949219,-0.541089575195312
6.06569523998989,-0.0526724365234375,9.97903251953125,-0.541089575195312
6.06788786271125,-0.105344873046875,9.99339772949219,-0.584185205078125
6.07008048543261,-0.047884033203125,10.0029745361328,-0.59376201171875
6.07227313701681,-0.0383072265625,9.96945571289062,-0.565031591796875
6.07446578860101,-0.01915361328125,9.99339772949219,-0.531512768554687
6.07665844018521,-0.0430956298828125,9.95987890625,-0.521935961914062
6.07885172143521,-0.0047884033203125,9.97903251953125,-0.545877978515625
6.08104500268522,-0.0335188232421875,9.96945571289062,-0.588973608398437
6.08323828393522,-0.0239420166015625,9.99339772949219,-0.565031591796875
6.08543034220344,-0.0239420166015625,10.0317049560547,-0.560243188476563
6.08762240047167,-0.0430956298828125,9.9981861328125,-0.608127221679687
6.0898144587399,-0.01915361328125,9.99339772949219,-0.569819995117188
6.09200388853591,-0.01915361328125,10.0269165527344,-0.627280834960937
6.09419331833192,-0.0143652099609375,9.98382092285156,-0.545877978515625
6.09638274812792,-0.01915361328125,9.97903251953125,-0.579396801757812
6.09857593801508,-0.0143652099609375,9.98860932617187,-0.51714755859375
6.10076912790223,-0.067037646484375,9.96945571289062,-0.545877978515625
6.10296231778938,-0.0143652099609375,9.98860932617187,-0.5746083984375
6.104768007134,-0.047884033203125,9.97424411621094,-0.445321508789062
6.10657369647862,-0.0335188232421875,9.98382092285156,-0.545877978515625
6.10837938582324,0.009576806640625,10.0269165527344,-0.512359155273437
6.11018599251269,-0.01915361328125,10.0125513427734,-0.526724365234375
6.11199259920215,0.0,9.9981861328125,-0.483628735351562
6.1137992058916,-0.0143652099609375,10.0460701660156,-0.493205541992187
6.11560661412185,0.009576806640625,10.0269165527344,-0.541089575195312
6.1174140223521,0.01915361328125,10.0221281494141,-0.493205541992187
6.11922143058235,0.0143652099609375,10.0317049560547,-0.44053310546875
6.12109348356087,0.0622492431640625,9.98382092285156,-0.47884033203125
6.12296553653938,0.0526724365234375,10.0460701660156,-0.416591088867187
6.1248375895179,0.0335188232421875,10.0700121826172,-0.45968671875
6.12671166986729,0.009576806640625,10.0221281494141,-0.445321508789062
6.12858575021668,0.009576806640625,9.99339772949219,-0.430956298828125
6.13045983056608,0.05746083984375,10.0700121826172,-0.368707055664062
6.13240790673795,0.0383072265625,10.1083194091797,-0.426167895507812
6.13435598290983,0.0430956298828125,10.0891657958984,-0.416591088867187
6.13630405908171,0.0383072265625,10.0987426025391,-0.4213794921875
6.13825269032086,0.028730419921875,10.1035310058594,-0.373495458984375
6.14020132156001,0.0622492431640625,10.0891657958984,-0.339976635742188
6.14214995279916,0.0047884033203125,10.1178962158203,-0.3447650390625
6.14409861501704,0.0622492431640625,10.0795889892578,-0.373495458984375
6.14604727723492,0.086191259765625,10.1083194091797,-0.330399829101562
6.1479959394528,0.047884033203125,10.1083194091797,-0.335188232421875
6.15001625792068,0.0430956298828125,10.1226846191406,-0.320823022460937
6.15203657638857,0.0718260498046875,10.1274730224609,-0.292092602539062
6.15405689485645,0.0622492431640625,10.1370498291016,-0.3064578125
6.15615466200055,0.0335188232421875,10.1226846191406,-0.359130249023437
6.15825242914464,0.0909796630859375,10.1131078125,-0.36391865234375
6.16035019628874,0.0430956298828125,10.1609918457031,-0.330399829101562
6.16244636479324,0.067037646484375,10.1131078125,-0.311246215820312
6.16454253329775,0.0909796630859375,10.1226846191406,-0.3447650390625
6.16663870180225,0.0622492431640625,10.1370498291016,-0.330399829101562
6.16873089539898,0.0383072265625,10.1466266357422,-0.354341845703125
6.17082308899571,0.0718260498046875,10.1370498291016,-0.330399829101562
6.17291528259245,0.0622492431640625,10.1466266357422,-0.296881005859375
6.17604514537185,0.0335188232421875,10.1418382324219,-0.301669409179687
6.17917500815126,0.0239420166015625,10.1753570556641,-0.32561142578125
6.18230487093066,0.0430956298828125,10.1753570556641,-0.316034619140625
6.18438633352967,0.01915361328125,10.1609918457031,-0.244208569335937
6.18646779612869,0.0526724365234375,10.1992990722656,-0.301669409179687
6.1885492587277,0.0335188232421875,10.1849338623047,-0.292092602539062
6.19062732964377,0.0143652099609375,10.1609918457031,-0.301669409179687
6.19270540055984,-0.0143652099609375,10.2280294921875,-0.215478149414062
6.19478347147591,0.0143652099609375,10.1705686523437,-0.28730419921875
6.19892612657302,-0.028730419921875,10.189722265625,-0.292092602539062
6.20306878167013,-0.0622492431640625,10.2136642822266,-0.335188232421875
6.20721143676725,-0.119710083007812,10.1753570556641,-0.397437475585937
6.21352185936789,-0.158017309570312,10.0748005859375,-0.32561142578125
6.21983228196853,-0.186747729492187,10.1322614257812,-0.320823022460937
6.22614270456917,-0.181959326171875,10.0843773925781,-0.244208569335937
6.22826254724088,-0.158017309570312,10.1657802490234,-0.292092602539062
6.2303823899126,-0.167594116210937,10.1705686523437,-0.311246215820312
6.23250223258431,-0.15322890625,10.1562034423828,-0.215478149414062
6.23462052783171,-0.124498486328125,10.1370498291016,-0.263362182617187
6.2367388230791,-0.162805712890625,10.1657802490234,-0.225054956054687
6.2388571183265,-0.110133276367187,10.1370498291016,-0.167594116210937
6.24097481949837,-0.110133276367187,10.1562034423828,-0.196324536132812
6.24309252067025,-0.167594116210937,10.1753570556641,-0.239420166015625
6.24521022184212,-0.158017309570312,10.2040874755859,-0.215478149414062
6.24732783968066,-0.110133276367187,10.1753570556641,-0.220266552734375
6.2494454575192,-0.09576806640625,10.1945106689453,-0.201112939453125
6.25156307535774,-0.105344873046875,10.1753570556641,-0.17238251953125
6.2537445387909,-0.047884033203125,10.1609918457031,-0.167594116210937
6.25592600222407,-0.0909796630859375,10.1418382324219,-0.129286889648437
6.25810746565723,-0.0814028564453125,10.1657802490234,-0.119710083007812
6.26029233219368,-0.138863696289063,10.2232410888672,-0.15322890625
6.26247719873014,-0.143652099609375,10.2376062988281,-0.105344873046875
6.2646620652666,-0.129286889648437,10.1801454589844,-0.105344873046875
6.26677791780566,-0.105344873046875,10.1801454589844,-0.0814028564453125
6.26889377034473,-0.124498486328125,10.1753570556641,-0.0909796630859375
6.27100962288379,-0.129286889648437,10.1322614257812,-0.119710083007812
6.2731285574541,-0.162805712890625,10.1705686523437,-0.124498486328125
6.27524749202441,-0.138863696289063,10.1705686523437,-0.143652099609375
6.27736642659472,-0.148440502929687,10.1466266357422,-0.105344873046875
6.27948841140375,-0.124498486328125,10.1801454589844,-0.09576806640625
6.28161039621278,-0.13407529296875,10.1609918457031,-0.076614453125
6.28373238102181,-0.105344873046875,10.1035310058594,-0.009576806640625
6.28607006309646,-0.1149216796875,10.1226846191406,-0.0239420166015625
6.28840774517111,-0.110133276367187,10.0891657958984,-0.0335188232421875
6.29074542724577,-0.086191259765625,10.0987426025391,0.0383072265625
6.29308382340462,-0.124498486328125,10.0556469726563,0.01915361328125
6.29542221956347,-0.0909796630859375,10.0604353759766,0.0526724365234375
6.29776061572232,-0.105344873046875,10.0604353759766,0.0335188232421875
6.30003164046191,-0.119710083007812,10.0604353759766,0.138863696289063
6.30230266520149,-0.100556469726563,10.0077629394531,0.0622492431640625
6.30457368994108,-0.13407529296875,10.0029745361328,0.110133276367187
6.30684096967198,-0.110133276367187,9.98860932617187,0.110133276367187
