timestamp,accel_x (m/s2),accel_y (m/s2),accel_z (m/s2)
0.00250250113932182,-0.215478149414062,9.85453403320312,-0.435744702148437
0.00500500227864364,-0.253785375976562,9.89762966308594,-0.47884033203125
0.00750750341796547,-0.234631762695312,9.883264453125,-0.526724365234375
0.0125156581488675,-0.272938989257812,9.88805285644531,-0.51714755859375
0.0175238128797695,-0.282515795898438,9.84974562988281,-0.488417138671875
0.0225319676106714,-0.292092602539062,9.90241806640625,-0.531512768554687
0.0275415403103227,-0.282515795898438,9.86889924316406,-0.579396801757812
0.0325511130099739,-0.296881005859375,9.88805285644531,-0.541089575195312
0.0375606857096251,-0.253785375976562,9.87847604980469,-0.541089575195312
0.042646667263444,-0.28730419921875,9.883264453125,-0.493205541992187
0.0477326488172629,-0.263362182617187,9.9215716796875,-0.536301171875
0.0528186303710818,-0.239420166015625,9.90720646972656,-0.4979939453125
0.0579099882269828,-0.272938989257812,9.92636008300781,-0.526724365234375
0.0630013460828837,-0.263362182617187,9.92636008300781,-0.545877978515625
0.0680927039387846,-0.301669409179687,9.9215716796875,-0.569819995117188
0.0731868129882625,-0.277727392578125,9.95030209960937,-0.55545478515625
0.0782809220377404,-0.263362182617187,9.94072529296875,-0.47884033203125
0.0833750310872183,-0.244208569335937,9.94551369628906,-0.4979939453125
0.0884716499023206,-0.244208569335937,9.93114848632812,-0.541089575195312
0.0935682687174229,-0.215478149414062,9.94072529296875,-0.521935961914062
0.0986648875325251,-0.277727392578125,9.89762966308594,-0.483628735351562
0.103763375162732,-0.234631762695312,9.91678327636719,-0.545877978515625
0.108861862792939,-0.24899697265625,9.91199487304687,-0.512359155273437
0.113960350423145,-0.263362182617187,9.91678327636719,-0.536301171875
0.119121184950054,-0.234631762695312,9.87368764648437,-0.550666381835937
0.124282019476964,-0.253785375976562,9.89284125976562,-0.541089575195312
0.129442854003873,-0.2681505859375,9.89762966308594,-0.4979939453125
0.134684254503004,-0.234631762695312,9.91678327636719,-0.464475122070312
0.139925655002134,-0.244208569335937,9.88805285644531,-0.426167895507812
0.145167055501265,-0.244208569335937,9.89762966308594,-0.488417138671875
0.150415799424874,-0.28730419921875,9.87368764648437,-0.51714755859375
0.155664543348482,-0.2681505859375,9.8449572265625,-0.536301171875
0.160913287272091,-0.292092602539062,9.86411083984375,-0.474051928710937
0.166166390245179,-0.2681505859375,9.87368764648437,-0.493205541992187
0.171419493218268,-0.277727392578125,9.883264453125,-0.47884033203125
0.176672596191356,-0.277727392578125,9.85932243652344,-0.526724365234375
0.181929682020347,-0.28730419921875,9.87847604980469,-0.550666381835937
0.187186767849339,-0.272938989257812,9.883264453125,-0.584185205078125
0.192443853678331,-0.225054956054687,9.9215716796875,-0.569819995117188
0.197704993760796,-0.244208569335937,9.883264453125,-0.47884033203125
0.202966133843261,-0.258573779296875,9.9215716796875,-0.5746083984375
0.208227273925726,-0.24899697265625,9.91678327636719,-0.545877978515625
0.213495245496905,-0.229843359375,9.93114848632812,-0.536301171875
0.218763217068084,-0.24899697265625,9.94072529296875,-0.512359155273437
0.224031188639263,-0.2681505859375,9.94551369628906,-0.536301171875
0.229301878960443,-0.244208569335937,9.94072529296875,-0.550666381835937
0.234572569281623,-0.215478149414062,9.95509050292969,-0.598550415039062
0.239843259602804,-0.21068974609375,9.94551369628906,-0.608127221679687
0.250572865017299,-0.196324536132812,9.94551369628906,-0.507570751953125
0.261302470431795,-0.1915361328125,9.94072529296875,-0.488417138671875
0.27203207584629,-0.234631762695312,9.97424411621094,-0.565031591796875
0.277431537217817,-0.277727392578125,9.97903251953125,-0.569819995117188
0.282830998589345,-0.1915361328125,9.98382092285156,-0.526724365234375
0.288230459960872,-0.21068974609375,9.96466730957031,-0.579396801757812
0.293632055012954,-0.1915361328125,10.0125513427734,-0.541089575195312
0.299033650065037,-0.205901342773437,9.97903251953125,-0.536301171875
0.304435245117119,-0.253785375976562,9.98382092285156,-0.469263525390625
0.309911119140556,-0.21068974609375,10.0029745361328,-0.493205541992187
0.315386993163993,-0.229843359375,9.97903251953125,-0.4979939453125
0.320862867187429,-0.253785375976562,9.97424411621094,-0.550666381835937
0.326342821288992,-0.234631762695312,10.0029745361328,-0.531512768554687
0.331822775390554,-0.220266552734375,9.97424411621094,-0.47884033203125
0.337302729492116,-0.24899697265625,10.0029745361328,-0.521935961914062
0.342785117512948,-0.215478149414062,10.0029745361328,-0.545877978515625
0.348267505533781,-0.263362182617187,9.96945571289062,-0.502782348632812
0.353749893554614,-0.215478149414062,9.99339772949219,-0.51714755859375
0.359234022026835,-0.215478149414062,9.99339772949219,-0.464475122070312
0.364718150499056,-0.220266552734375,10.0460701660156,-0.4979939453125
0.370202278971277,-0.215478149414062,10.0173397460938,-0.507570751953125
0.383915553846492,-0.205901342773437,10.0269165527344,-0.488417138671875
0.397628828721707,-0.220266552734375,9.99339772949219,-0.526724365234375
0.411342103596922,-0.229843359375,10.0221281494141,-0.454898315429687
0.416829453857337,-0.21068974609375,10.0173397460938,-0.483628735351562
0.422316804117751,-0.229843359375,10.0221281494141,-0.47884033203125
0.427804154378165,-0.196324536132812,10.0077629394531,-0.531512768554687
0.44163888319218,-0.177170922851562,10.0221281494141,-0.469263525390625
0.455473612006195,-0.181959326171875,10.0412817626953,-0.521935961914062
0.469308340820209,-0.17238251953125,10.0269165527344,-0.445321508789062
0.474865141709966,-0.177170922851562,10.0843773925781,-0.454898315429687
0.480421942599722,-0.17238251953125,10.0795889892578,-0.469263525390625
0.485978743489479,-0.186747729492187,10.0412817626953,-0.450109912109375
0.491537925021595,-0.181959326171875,10.036493359375,-0.47884033203125
0.497097106553711,-0.181959326171875,10.0604353759766,-0.521935961914062
0.502656288085827,-0.158017309570312,10.0269165527344,-0.560243188476563
0.508216978624021,-0.201112939453125,10.0460701660156,-0.488417138671875
0.513777669162215,-0.181959326171875,10.036493359375,-0.569819995117188
0.519338359700409,-0.186747729492187,10.0652237792969,-0.521935961914062
0.524900514105789,-0.177170922851562,10.0221281494141,-0.488417138671875
0.530462668511169,-0.17238251953125,10.0077629394531,-0.397437475585937
0.536024822916549,-0.17238251953125,10.0317049560547,-0.502782348632812
0.541656468641374,-0.181959326171875,9.98382092285156,-0.51714755859375
0.5472881143662,-0.21068974609375,10.0173397460938,-0.51714755859375
0.552919760091026,-0.177170922851562,9.98860932617187,-0.565031591796875
0.558556907985989,-0.215478149414062,10.0077629394531,-0.541089575195312
0.564194055880953,-0.186747729492187,10.0029745361328,-0.5746083984375
0.569831203775916,-0.181959326171875,10.0173397460938,-0.531512768554687
0.575474473632685,-0.201112939453125,10.0125513427734,-0.545877978515625
0.581117743489454,-0.143652099609375,10.0221281494141,-0.565031591796875
0.586761013346223,-0.177170922851562,9.98860932617187,-0.565031591796875
0.592410489040666,-0.186747729492187,9.9981861328125,-0.550666381835937
0.598059964735108,-0.181959326171875,9.96466730957031,-0.603338818359375
0.603709440429551,-0.181959326171875,9.97903251953125,-0.617704028320312
0.609362713867049,-0.21068974609375,9.96945571289062,-0.5746083984375
0.615015987304547,-0.186747729492187,9.99339772949219,-0.565031591796875
0.620669260742044,-0.1915361328125,9.97424411621094,-0.560243188476563
0.62645551692694,-0.205901342773437,9.96945571289062,-0.541089575195312
0.632241773111835,-0.181959326171875,9.99339772949219,-0.579396801757812
0.638028029296731,-0.239420166015625,10.0125513427734,-0.59376201171875
0.643816786892215,-0.181959326171875,10.0029745361328,-0.541089575195312
0.6496055444877,-0.21068974609375,9.9981861328125,-0.541089575195312
0.655394302083184,-0.215478149414062,10.0125513427734,-0.569819995117188
0.661184820746377,-0.239420166015625,10.0412817626953,-0.531512768554687
0.666975339409569,-0.220266552734375,10.0221281494141,-0.55545478515625
0.672765858072761,-0.201112939453125,10.0125513427734,-0.550666381835937
0.678558676432136,-0.1915361328125,10.0029745361328,-0.569819995117188
0.68435149479151,-0.186747729492187,10.036493359375,-0.598550415039062
0.690144313150885,-0.196324536132812,9.9981861328125,-0.598550415039062
0.695938847656091,-0.186747729492187,10.0173397460938,-0.4979939453125
0.701733382161297,-0.196324536132812,10.0029745361328,-0.617704028320312
0.707527916666503,-0.1915361328125,9.99339772949219,-0.598550415039062
0.713323934244626,-0.21068974609375,9.97903251953125,-0.5746083984375
0.719119951822749,-0.234631762695312,9.96466730957031,-0.5746083984375
0.724915969400872,-0.181959326171875,9.95030209960937,-0.483628735351562
0.730713419053649,-0.181959326171875,9.97903251953125,-0.550666381835937
0.736510868706426,-0.201112939453125,9.96466730957031,-0.560243188476563
0.742308318359203,-0.177170922851562,9.95509050292969,-0.469263525390625
0.757059590114843,-0.205901342773437,9.95509050292969,-0.450109912109375
0.771810861870483,-0.258573779296875,9.93593688964844,-0.488417138671875
0.786562133626123,-0.229843359375,9.95030209960937,-0.55545478515625
0.79250929844817,-0.24899697265625,9.96466730957031,-0.488417138671875
0.798456463270217,-0.244208569335937,9.95987890625,-0.526724365234375
0.804403628092263,-0.244208569335937,9.95509050292969,-0.464475122070312
0.810352545843999,-0.220266552734375,9.95030209960937,-0.502782348632812
0.816301463595734,-0.215478149414062,9.92636008300781,-0.47884033203125
0.82225038134747,-0.21068974609375,9.91678327636719,-0.450109912109375
0.828200804199032,-0.21068974609375,9.93593688964844,-0.450109912109375
0.834151227050594,-0.1915361328125,9.96466730957031,-0.531512768554687
0.840101649902156,-0.229843359375,9.93593688964844,-0.464475122070312
0.846053537922987,-0.181959326171875,9.92636008300781,-0.521935961914062
0.852005425943819,-0.24899697265625,9.95987890625,-0.454898315429687
0.857957313964651,-0.1915361328125,9.92636008300781,-0.464475122070312
0.863910777289302,-0.220266552734375,9.94072529296875,-0.445321508789062
0.869864240613953,-0.17238251953125,9.94551369628906,-0.483628735351562
0.875817703938605,-0.205901342773437,9.9215716796875,-0.4979939453125
0.893817410318811,-0.177170922851562,9.89762966308594,-0.464475122070312
0.911817116699018,-0.21068974609375,9.87847604980469,-0.454898315429687
0.929816823079225,-0.21068974609375,9.84974562988281,-0.550666381835937
0.93584710975457,-0.177170922851562,9.90241806640625,-0.541089575195312
0.941877396429915,-0.201112939453125,9.90720646972656,-0.560243188476563
0.94790768310526,-0.220266552734375,9.91678327636719,-0.474051928710937
0.953941038465502,-0.225054956054687,9.93114848632812,-0.541089575195312
0.959974393825745,-0.201112939453125,9.92636008300781,-0.483628735351562
0.966007749185987,-0.196324536132812,9.90720646972656,-0.507570751953125
0.972042744845708,-0.17238251953125,9.93114848632812,-0.47884033203125
0.978077740505428,-0.220266552734375,9.94072529296875,-0.488417138671875
0.984112736165148,-0.196324536132812,9.883264453125,-0.526724365234375
0.990149270561847,-0.186747729492187,9.9215716796875,-0.51714755859375
0.996185804958547,-0.215478149414062,9.92636008300781,-0.512359155273437
1.00222233935525,-0.229843359375,9.95030209960937,-0.45968671875
1.00832131331358,-0.196324536132812,9.91199487304687,-0.560243188476563
1.01442028727191,-0.196324536132812,9.91199487304687,-0.507570751953125
1.02051926123024,-0.220266552734375,9.9215716796875,-0.502782348632812
1.02662070339604,-0.225054956054687,9.9215716796875,-0.4979939453125
1.03272214556184,-0.186747729492187,9.94072529296875,-0.512359155273437
1.03882358772764,-0.272938989257812,9.96466730957031,-0.512359155273437
1.04492915543597,-0.201112939453125,9.9215716796875,-0.521935961914062
1.0510347231443,-0.244208569335937,9.9215716796875,-0.483628735351562
1.05714029085263,-0.244208569335937,9.94551369628906,-0.507570751953125
1.06324768809656,-0.215478149414062,9.97424411621094,-0.512359155273437
1.06935508534048,-0.229843359375,9.96466730957031,-0.464475122070312
1.0754624825844,-0.215478149414062,9.99339772949219,-0.474051928710937
1.08157178314864,-0.234631762695312,9.95509050292969,-0.51714755859375
1.08768108371287,-0.272938989257812,9.95509050292969,-0.531512768554687
1.09379038427711,-0.253785375976562,9.98382092285156,-0.483628735351562
1.10012423518857,-0.24899697265625,9.95509050292969,-0.493205541992187
1.10645808610003,-0.272938989257812,9.95509050292969,-0.531512768554687
1.11279193701148,-0.272938989257812,9.94072529296875,-0.512359155273437
1.11912926296634,-0.225054956054687,9.95987890625,-0.502782348632812
1.1254665889212,-0.234631762695312,9.98860932617187,-0.493205541992187
1.13180391487606,-0.301669409179687,9.98860932617187,-0.469263525390625
1.13814303618682,-0.28730419921875,9.97903251953125,-0.483628735351562
1.14448215749759,-0.28730419921875,10.0029745361328,-0.507570751953125
1.15082127880835,-0.272938989257812,10.0029745361328,-0.469263525390625
1.15716213004533,-0.277727392578125,9.97424411621094,-0.502782348632812
1.1635029812823,-0.258573779296875,10.0077629394531,-0.507570751953125
1.16984383251928,-0.258573779296875,9.99339772949219,-0.512359155273437
1.17618618994115,-0.2681505859375,9.99339772949219,-0.545877978515625
1.18252854736303,-0.239420166015625,9.98860932617187,-0.4979939453125
1.1888709047849,-0.272938989257812,10.0269165527344,-0.469263525390625
1.19521474636476,-0.2681505859375,10.0269165527344,-0.536301171875
1.20155858794462,-0.24899697265625,9.97903251953125,-0.493205541992187
1.20790242952448,-0.244208569335937,10.0125513427734,-0.507570751953125
1.2142477407224,-0.205901342773437,10.0029745361328,-0.531512768554687
1.22059305192032,-0.2681505859375,9.96945571289062,-0.469263525390625
1.22693836311823,-0.229843359375,10.0221281494141,-0.493205541992187
1.2588629532875,-0.253785375976562,9.99339772949219,-0.493205541992187
1.29078754345676,-0.220266552734375,10.0029745361328,-0.47884033203125
1.32271213362602,-0.1915361328125,10.0173397460938,-0.541089575195312
1.32920195035779,-0.21068974609375,9.98860932617187,-0.560243188476563
1.33569176708956,-0.234631762695312,10.0317049560547,-0.541089575195312
1.34218158382133,-0.253785375976562,10.0077629394531,-0.488417138671875
1.34867367930744,-0.244208569335937,10.0077629394531,-0.536301171875
1.35516577479355,-0.1915361328125,10.0077629394531,-0.545877978515625
1.36165787027966,-0.244208569335937,10.0125513427734,-0.531512768554687
1.36815507828747,-0.234631762695312,10.0029745361328,-0.502782348632812
1.37465228629528,-0.215478149414062,10.0077629394531,-0.526724365234375
1.38114949430309,-0.1915361328125,9.97903251953125,-0.531512768554687
1.38765099039684,-0.239420166015625,10.0029745361328,-0.536301171875
1.39415248649059,-0.234631762695312,9.99339772949219,-0.55545478515625
1.40065398258434,-0.196324536132812,9.98382092285156,-0.5746083984375
1.40716057872149,-0.296881005859375,9.98860932617187,-0.51714755859375
1.41366717485865,-0.21068974609375,9.9981861328125,-0.507570751953125
1.4201737709958,-0.229843359375,10.0125513427734,-0.493205541992187
1.42668340576142,-0.220266552734375,9.98860932617187,-0.579396801757812
1.43319304052705,-0.24899697265625,10.0077629394531,-0.45968671875
1.43970267529267,-0.177170922851562,9.97903251953125,-0.531512768554687
1.44621384510604,-0.225054956054687,9.98860932617187,-0.550666381835937
1.4527250149194,-0.215478149414062,9.97903251953125,-0.536301171875
1.45923618473277,-0.239420166015625,9.96945571289062,-0.512359155273437
1.472460079047,-0.201112939453125,9.98860932617187,-0.565031591796875
1.48568397336124,-0.229843359375,10.0269165527344,-0.569819995117188
1.49890786767547,-0.239420166015625,9.96945571289062,-0.550666381835937
1.50555584119978,-0.258573779296875,9.98382092285156,-0.565031591796875
1.51220381472408,-0.205901342773437,10.036493359375,-0.526724365234375
1.51885178824839,-0.162805712890625,9.97903251953125,-0.464475122070312
1.52550135020585,-0.186747729492187,10.0317049560547,-0.47884033203125
1.53215091216332,-0.186747729492187,9.96466730957031,-0.507570751953125
1.53880047412078,-0.205901342773437,9.9981861328125,-0.526724365234375
1.54545190869109,-0.220266552734375,10.0173397460938,-0.531512768554687
1.5521033432614,-0.177170922851562,9.97903251953125,-0.488417138671875
1.55875477783171,-0.21068974609375,10.0125513427734,-0.579396801757812
1.56540776285775,-0.162805712890625,9.98382092285156,-0.512359155273437
1.5720607478838,-0.234631762695312,9.99339772949219,-0.493205541992187
1.57871373290984,-0.196324536132812,9.96466730957031,-0.507570751953125
1.58536819894716,-0.148440502929687,9.96945571289062,-0.526724365234375
1.59202266498449,-0.177170922851562,10.0029745361328,-0.502782348632812
1.59867713102181,-0.167594116210937,9.96466730957031,-0.450109912109375
1.60533304768848,-0.186747729492187,9.97424411621094,-0.512359155273437
1.61198896435515,-0.201112939453125,9.95030209960937,-0.483628735351562
1.61864488102181,-0.196324536132812,9.99339772949219,-0.502782348632812
1.63540441495735,-0.220266552734375,9.95509050292969,-0.521935961914062
1.6521639488929,-0.201112939453125,9.92636008300781,-0.4213794921875
1.66892348282844,-0.1915361328125,9.93114848632812,-0.545877978515625
1.67565124270257,-0.225054956054687,9.93114848632812,-0.541089575195312
1.6823790025767,-0.215478149414062,9.96945571289062,-0.493205541992187
1.68910676245083,-0.186747729492187,9.96466730957031,-0.545877978515625
1.69583676277635,-0.205901342773437,9.93114848632812,-0.536301171875
1.70256676310188,-0.244208569335937,9.96466730957031,-0.541089575195312
1.7092967634274,-0.229843359375,9.97903251953125,-0.474051928710937
1.71602862182583,-0.225054956054687,9.97903251953125,-0.45968671875
1.72276048022427,-0.21068974609375,9.93114848632812,-0.545877978515625
1.72949233862271,-0.229843359375,9.94072529296875,-0.541089575195312
1.73622569756368,-0.186747729492187,9.99339772949219,-0.526724365234375
1.74295905650465,-0.225054956054687,9.93114848632812,-0.51714755859375
1.74969241544562,-0.220266552734375,9.93114848632812,-0.512359155273437
1.75657254109666,-0.21068974609375,9.91678327636719,-0.512359155273437
1.7634526667477,-0.253785375976562,9.97424411621094,-0.474051928710937
1.77033279239874,-0.225054956054687,9.92636008300781,-0.4979939453125
1.77721589613138,-0.225054956054687,9.95509050292969,-0.4979939453125
1.78409899986402,-0.244208569335937,9.91678327636719,-0.521935961914062
1.79098210359665,-0.215478149414062,9.94551369628906,-0.502782348632812
1.79786850029804,-0.215478149414062,9.92636008300781,-0.541089575195312
1.80475489699943,-0.220266552734375,9.94551369628906,-0.474051928710937
1.81164129370082,-0.253785375976562,9.91199487304687,-0.51714755859375
1.81853230541957,-0.177170922851562,9.94072529296875,-0.512359155273437
1.82542331713832,-0.225054956054687,9.93114848632812,-0.4979939453125
1.83231432885707,-0.225054956054687,9.9215716796875,-0.502782348632812
1.83921081149595,-0.2681505859375,9.94551369628906,-0.493205541992187
1.84610729413484,-0.234631762695312,9.91678327636719,-0.4979939453125
1.85300377677373,-0.186747729492187,9.91199487304687,-0.474051928710937
1.85990255574509,-0.258573779296875,9.90241806640625,-0.45968671875
1.86680133471644,-0.21068974609375,9.91199487304687,-0.526724365234375
1.87370011368779,-0.181959326171875,9.91199487304687,-0.560243188476563
1.88060124628327,-0.225054956054687,9.91678327636719,-0.493205541992187
1.88750237887876,-0.21068974609375,9.93114848632812,-0.541089575195312
1.89440351147424,-0.277727392578125,9.9215716796875,-0.507570751953125
1.91175580566369,-0.234631762695312,9.98382092285156,-0.507570751953125
1.92910809985314,-0.239420166015625,9.9981861328125,-0.51714755859375
1.94646039404259,-0.239420166015625,9.96466730957031,-0.507570751953125
1.95342068983252,-0.253785375976562,9.95030209960937,-0.569819995117188
1.96038098562245,-0.258573779296875,9.95509050292969,-0.55545478515625
1.96734128141238,-0.258573779296875,9.95509050292969,-0.565031591796875
1.97437740738894,-0.253785375976562,9.95987890625,-0.541089575195312
1.9814135333655,-0.253785375976562,9.97424411621094,-0.636857641601562
1.98844965934206,-0.239420166015625,9.96466730957031,-0.47884033203125
1.99548804020144,-0.244208569335937,9.98382092285156,-0.521935961914062
2.00252642106081,-0.253785375976562,9.9981861328125,-0.565031591796875
2.00956480192018,-0.258573779296875,9.99339772949219,-0.545877978515625
2.01660512820056,-0.24899697265625,9.95987890625,-0.565031591796875
2.02364545448094,-0.239420166015625,9.96945571289062,-0.603338818359375
2.03068578076132,-0.2681505859375,9.98860932617187,-0.59376201171875
2.03772769124309,-0.258573779296875,10.0029745361328,-0.55545478515625
2.04476960172486,-0.229843359375,9.97903251953125,-0.617704028320312
2.05181151220663,-0.229843359375,10.0077629394531,-0.603338818359375
2.05885499820924,-0.177170922851562,9.98382092285156,-0.560243188476563
2.06589848421184,-0.177170922851562,10.0125513427734,-0.617704028320312
2.07294197021444,-0.24899697265625,10.0173397460938,-0.5746083984375
2.07998700374309,-0.21068974609375,9.95030209960937,-0.617704028320312
2.08703203727173,-0.229843359375,9.98860932617187,-0.608127221679687
2.09407707080038,-0.229843359375,10.0412817626953,-0.588973608398437
2.10112356146878,-0.205901342773437,10.0077629394531,-0.560243188476563
2.10817005213718,-0.215478149414062,10.0173397460938,-0.588973608398437
2.11521654280558,-0.201112939453125,9.98860932617187,-0.603338818359375
2.12587175881578,-0.301669409179687,9.99339772949219,-0.579396801757812
2.13652697482598,-0.2681505859375,9.95987890625,-0.612915625
2.14718219083618,-0.282515795898438,9.95030209960937,-0.612915625
2.15430047067558,-0.253785375976562,9.95987890625,-0.560243188476563
2.16141875051499,-0.272938989257812,9.97424411621094,-0.608127221679687
2.1685370303544,-0.277727392578125,9.90720646972656,-0.598550415039062
2.17565714211655,-0.292092602539062,9.94072529296875,-0.569819995117188
2.1827772538787,-0.2681505859375,9.90720646972656,-0.660799658203125
2.18989736564085,-0.263362182617187,9.94551369628906,-0.521935961914062
2.19701897241169,-0.28730419921875,9.9215716796875,-0.689530078125
2.20414057918252,-0.239420166015625,9.92636008300781,-0.617704028320312
2.21126218595335,-0.301669409179687,9.883264453125,-0.545877978515625
2.21838525507227,-0.282515795898438,9.91678327636719,-0.622492431640625
2.2255083241912,-0.28730419921875,9.9215716796875,-0.641646044921875
2.23263139331012,-0.296881005859375,9.90241806640625,-0.608127221679687
2.23982575952106,-0.253785375976562,9.86889924316406,-0.656011254882812
2.247020125732,-0.263362182617187,9.91199487304687,-0.660799658203125
2.25421449194293,-0.301669409179687,9.92636008300781,-0.679953271484375
2.26141522555838,-0.2681505859375,9.94072529296875,-0.660799658203125
2.26861595917383,-0.320823022460937,9.93593688964844,-0.684741674804688
2.27581669278928,-0.2681505859375,9.91678327636719,-0.660799658203125
2.28302058471637,-0.296881005859375,9.94551369628906,-0.679953271484375
2.29022447664345,-0.263362182617187,9.95509050292969,-0.67037646484375
2.29742836857053,-0.239420166015625,9.91678327636719,-0.6512228515625
2.30463401559744,-0.239420166015625,9.93593688964844,-0.660799658203125
2.31183966262434,-0.253785375976562,9.95987890625,-0.665588061523437
2.31904530965125,-0.234631762695312,9.9981861328125,-0.6512228515625
2.32625248445594,-0.239420166015625,10.0077629394531,-0.660799658203125
2.33345965926062,-0.225054956054687,9.95987890625,-0.646434448242187
2.34066683406531,-0.229843359375,10.0029745361328,-0.646434448242187
2.34793749270246,-0.229843359375,9.95030209960937,-0.627280834960937
2.35520815133961,-0.220266552734375,10.0029745361328,-0.622492431640625
2.36247880997676,-0.196324536132812,9.9981861328125,-0.59376201171875
2.36724933553015,-0.215478149414062,10.0125513427734,-0.588973608398437
2.37201986108354,-0.215478149414062,10.0029745361328,-0.627280834960937
2.37679038663692,-0.186747729492187,10.0269165527344,-0.588973608398437
2.37905674427581,-0.225054956054687,9.97424411621094,-0.560243188476563
2.3813231019147,-0.215478149414062,10.0077629394531,-0.545877978515625
2.38358945955359,-0.1915361328125,10.0412817626953,-0.55545478515625
2.3859285191239,-0.17238251953125,9.9981861328125,-0.560243188476563
2.38826757869421,-0.186747729492187,10.036493359375,-0.550666381835937
2.39060663826453,-0.177170922851562,10.036493359375,-0.541089575195312
2.39287208216644,-0.186747729492187,10.0508585693359,-0.55545478515625
2.39513752606834,-0.167594116210937,10.0221281494141,-0.531512768554687
2.39740296997025,-0.1915361328125,10.0460701660156,-0.598550415039062
2.39966463761348,-0.15322890625,10.0891657958984,-0.565031591796875
2.40192630525671,-0.13407529296875,10.0604353759766,-0.526724365234375
2.40418797289994,-0.13407529296875,10.0508585693359,-0.584185205078125
2.40644840486609,-0.138863696289063,10.0748005859375,-0.608127221679687
2.40870883683223,-0.124498486328125,10.0317049560547,-0.502782348632812
2.41096926879838,-0.110133276367187,10.0556469726563,-0.5746083984375
2.413228645643,-0.100556469726563,10.0460701660156,-0.560243188476563
2.41548802248762,-0.124498486328125,10.0125513427734,-0.598550415039062
2.41774739933224,-0.13407529296875,10.0173397460938,-0.47884033203125
2.42007570868554,-0.119710083007812,10.0173397460938,-0.512359155273437
2.42240401803884,-0.119710083007812,10.0460701660156,-0.526724365234375
2.42473232739214,-0.13407529296875,10.0317049560547,-0.565031591796875
2.42809408338715,-0.09576806640625,10.0077629394531,-0.488417138671875
2.43145583938216,-0.138863696289063,9.95030209960937,-0.450109912109375
2.43481759537717,-0.124498486328125,9.98860932617187,-0.512359155273437
2.43700354747135,-0.100556469726563,9.98860932617187,-0.612915625
2.43918949956553,-0.13407529296875,10.0077629394531,-0.512359155273437
2.44137545165972,-0.124498486328125,9.94551369628906,-0.55545478515625
2.44355718674001,-0.148440502929687,10.0029745361328,-0.512359155273437
2.44573892182031,-0.17238251953125,9.93593688964844,-0.507570751953125
2.44792065690061,-0.129286889648437,9.95509050292969,-0.493205541992187
2.45009976215234,-0.15322890625,9.98382092285156,-0.454898315429687
2.45227886740408,-0.13407529296875,9.99339772949219,-0.45968671875
2.45445797265582,-0.17238251953125,9.97903251953125,-0.536301171875
2.45663452191797,-0.17238251953125,9.95030209960937,-0.47884033203125
2.45881107118012,-0.21068974609375,9.91678327636719,-0.536301171875
2.46098762044227,-0.186747729492187,9.93114848632812,-0.521935961914062
2.46338470979774,-0.1915361328125,9.95987890625,-0.531512768554687
2.46578179915321,-0.181959326171875,9.93114848632812,-0.512359155273437
2.46817888850868,-0.215478149414062,9.94551369628906,-0.4979939453125
2.47057440597829,-0.215478149414062,9.94072529296875,-0.560243188476563
2.47296992344791,-0.225054956054687,9.95509050292969,-0.51714755859375
2.47536544091753,-0.220266552734375,9.93114848632812,-0.502782348632812
2.47774519860344,-0.229843359375,9.95030209960937,-0.569819995117188
2.48012495628935,-0.244208569335937,9.95509050292969,-0.51714755859375
2.48250471397525,-0.272938989257812,9.96945571289062,-0.545877978515625
2.48480728549941,-0.272938989257812,9.95509050292969,-0.521935961914062
2.48710985702357,-0.282515795898438,9.96945571289062,-0.598550415039062
2.48941242854773,-0.24899697265625,9.98382092285156,-0.545877978515625
2.49169597851518,-0.263362182617187,9.95987890625,-0.526724365234375
2.49397952848263,-0.234631762695312,9.93593688964844,-0.560243188476563
2.49626307845008,-0.220266552734375,9.95987890625,-0.536301171875
2.49854574348914,-0.234631762695312,9.95509050292969,-0.598550415039062
2.5008284085282,-0.234631762695312,9.99339772949219,-0.608127221679687
2.50311107356726,-0.272938989257812,9.95509050292969,-0.545877978515625
2.50535701274912,-0.282515795898438,9.95030209960937,-0.560243188476563
2.50760295193098,-0.320823022460937,9.97424411621094,-0.521935961914062
2.50984889111283,-0.253785375976562,9.97424411621094,-0.507570751953125
2.52102382907398,-0.17238251953125,9.96945571289062,-0.588973608398437
2.53219876703513,-0.181959326171875,9.96945571289062,-0.584185205078125
2.54337370499628,-0.158017309570312,9.98860932617187,-0.612915625
2.54562982337736,-0.196324536132812,9.98382092285156,-0.55545478515625
2.54788594175843,-0.177170922851562,9.97424411621094,-0.55545478515625
2.55014206013951,-0.17238251953125,9.96945571289062,-0.521935961914062
2.55239858053882,-0.17238251953125,9.98382092285156,-0.521935961914062
2.55465510093812,-0.177170922851562,10.0173397460938,-0.541089575195312
2.55691162133743,-0.220266552734375,10.0077629394531,-0.560243188476563
2.55914473636836,-0.181959326171875,9.98382092285156,-0.55545478515625
2.56137785139928,-0.186747729492187,9.95509050292969,-0.560243188476563
2.56361096643021,-0.186747729492187,9.98860932617187,-0.569819995117188
2.5658123161074,-0.17238251953125,10.0173397460938,-0.512359155273437
2.56801366578459,-0.186747729492187,10.0173397460938,-0.531512768554687
2.57021501546178,-0.177170922851562,9.99339772949219,-0.565031591796875
2.57247724517098,-0.181959326171875,9.9981861328125,-0.541089575195312
2.57473947488019,-0.1915361328125,10.0077629394531,-0.584185205078125
2.57700170458939,-0.201112939453125,10.0029745361328,-0.545877978515625
2.57926353662064,-0.1915361328125,9.98860932617187,-0.541089575195312
2.58152536865189,-0.167594116210937,9.99339772949219,-0.579396801757812
2.58378720068314,-0.17238251953125,10.0317049560547,-0.579396801757812
2.58604870757333,-0.162805712890625,9.9981861328125,-0.598550415039062
2.58831021446352,-0.177170922851562,10.0269165527344,-0.579396801757812
2.59057172135371,-0.21068974609375,9.99339772949219,-0.59376201171875
2.59283332307897,-0.17238251953125,9.96945571289062,-0.5746083984375
2.59509492480423,-0.119710083007812,9.98382092285156,-0.47884033203125
2.59735652652949,-0.186747729492187,9.96466730957031,-0.545877978515625
2.59958413286629,-0.148440502929687,9.97903251953125,-0.608127221679687
2.6018117392031,-0.162805712890625,9.97424411621094,-0.550666381835937
2.6040393455399,-0.229843359375,9.99339772949219,-0.521935961914062
2.60638246533157,-0.181959326171875,9.97903251953125,-0.541089575195312
2.60872558512324,-0.158017309570312,9.98382092285156,-0.55545478515625
2.6110687049149,-0.17238251953125,9.96466730957031,-0.5746083984375
2.61341282796178,-0.158017309570312,9.97903251953125,-0.531512768554687
2.61575695100866,-0.196324536132812,9.99339772949219,-0.560243188476563
2.61810107405553,-0.186747729492187,9.9981861328125,-0.550666381835937
2.62044214572437,-0.186747729492187,9.96945571289062,-0.541089575195312
2.62278321739321,-0.158017309570312,9.94072529296875,-0.541089575195312
2.62512428906204,-0.1915361328125,9.95030209960937,-0.526724365234375
2.62746191351951,-0.186747729492187,10.0173397460938,-0.5746083984375
2.62979953797698,-0.158017309570312,9.96945571289062,-0.59376201171875
2.63213716243444,-0.196324536132812,9.95509050292969,-0.565031591796875
2.63440788319182,-0.215478149414062,9.95030209960937,-0.565031591796875
2.6366786039492,-0.186747729492187,9.95509050292969,-0.579396801757812
2.63894932470658,-0.177170922851562,9.95030209960937,-0.612915625
2.64115376095875,-0.229843359375,9.94551369628906,-0.598550415039062
2.64335819721092,-0.205901342773437,9.97424411621094,-0.536301171875
2.64556263346309,-0.201112939453125,9.98860932617187,-0.584185205078125
2.64776636534243,-0.215478149414062,9.98382092285156,-0.51714755859375
2.64997009722177,-0.21068974609375,9.96466730957031,-0.507570751953125
2.65217382910111,-0.225054956054687,9.96945571289062,-0.526724365234375
2.65777758582854,-0.215478149414062,9.96466730957031,-0.4979939453125
2.66338134255597,-0.201112939453125,9.97903251953125,-0.5746083984375
2.66898509928341,-0.177170922851562,9.98382092285156,-0.541089575195312
2.67124371223914,-0.21068974609375,9.95987890625,-0.51714755859375
2.67350232519487,-0.239420166015625,9.93114848632812,-0.565031591796875
2.6757609381506,-0.177170922851562,9.95987890625,-0.51714755859375
2.67801967339365,-0.215478149414062,9.97903251953125,-0.545877978515625
2.68027840863671,-0.1915361328125,9.99339772949219,-0.617704028320312
2.68253714387976,-0.1915361328125,9.95987890625,-0.550666381835937
2.68474390947764,-0.15322890625,10.0029745361328,-0.579396801757812
2.68695067507551,-0.21068974609375,9.96945571289062,-0.531512768554687
2.68915744067338,-0.201112939453125,9.95509050292969,-0.541089575195312
2.69136104589799,-0.17238251953125,9.93114848632812,-0.579396801757812
2.6935646511226,-0.201112939453125,9.98860932617187,-0.565031591796875
2.69576825634721,-0.196324536132812,9.94551369628906,-0.541089575195312
2.69795502202646,-0.1915361328125,9.98382092285156,-0.502782348632812
2.70014178770571,-0.225054956054687,10.0221281494141,-0.521935961914062
2.70232855338497,-0.201112939453125,9.98382092285156,-0.5746083984375
2.70451498507985,-0.186747729492187,9.99339772949219,-0.531512768554687
2.70670141677473,-0.17238251953125,9.96945571289062,-0.617704028320312
2.70888784846961,-0.186747729492187,9.95987890625,-0.51714755859375
2.71107444672264,-0.196324536132812,9.96945571289062,-0.569819995117188
2.71326104497568,-0.205901342773437,9.98860932617187,-0.603338818359375
2.71544764322872,-0.205901342773437,9.96945571289062,-0.521935961914062
2.71763425493662,-0.186747729492187,9.95987890625,-0.536301171875
2.71982086664452,-0.186747729492187,9.94072529296875,-0.612915625
2.72200747835242,-0.201112939453125,9.97903251953125,-0.565031591796875
2.72419402555294,-0.201112939453125,9.98860932617187,-0.536301171875
2.72638057275346,-0.1915361328125,9.95509050292969,-0.536301171875
2.72856711995398,-0.205901342773437,9.97424411621094,-0.474051928710937
2.73081471294444,-0.196324536132812,9.97903251953125,-0.55545478515625
2.73306230593489,-0.21068974609375,9.97903251953125,-0.541089575195312
2.73530989892534,-0.177170922851562,9.97424411621094,-0.603338818359375
2.73753210389496,-0.1915361328125,9.99339772949219,-0.545877978515625
2.73975430886457,-0.196324536132812,9.9981861328125,-0.55545478515625
2.74197651383419,-0.177170922851562,9.98860932617187,-0.5746083984375
2.74417256960676,-0.229843359375,9.9981861328125,-0.531512768554687
2.74636862537933,-0.205901342773437,9.96466730957031,-0.521935961914062
2.7485646811519,-0.181959326171875,9.95987890625,-0.512359155273437
2.75075175699825,-0.205901342773437,9.98382092285156,-0.536301171875
2.7529388328446,-0.220266552734375,9.9981861328125,-0.536301171875
2.75512590869096,-0.229843359375,9.97903251953125,-0.526724365234375
2.75730933072872,-0.225054956054687,9.99339772949219,-0.541089575195312
2.75949275276648,-0.201112939453125,10.0029745361328,-0.579396801757812
2.76167617480424,-0.21068974609375,9.95987890625,-0.560243188476563
2.76392857112586,-0.225054956054687,9.97903251953125,-0.47884033203125
2.76618096744747,-0.239420166015625,9.98860932617187,-0.565031591796875
2.76843336376909,-0.215478149414062,9.93593688964844,-0.531512768554687
2.77068784374956,-0.215478149414062,9.96945571289062,-0.545877978515625
2.77294232373003,-0.220266552734375,9.95509050292969,-0.526724365234375
2.77519680371049,-0.229843359375,9.94551369628906,-0.545877978515625
2.77742107166839,-0.205901342773437,9.96945571289062,-0.507570751953125
2.77964533962629,-0.225054956054687,9.95987890625,-0.588973608398437
2.78186960758419,-0.239420166015625,9.95509050292969,-0.550666381835937
2.78406292838497,-0.244208569335937,9.95030209960937,-0.531512768554687
2.78625624918575,-0.229843359375,9.96466730957031,-0.550666381835937
2.78844956998653,-0.220266552734375,9.95030209960937,-0.526724365234375
2.7906410484479,-0.201112939453125,9.98382092285156,-0.541089575195312
2.79283252690927,-0.234631762695312,9.96945571289062,-0.531512768554687
2.79502400537064,-0.258573779296875,9.96466730957031,-0.541089575195312
2.79736064463931,-0.272938989257812,9.96945571289062,-0.55545478515625
2.79969728390797,-0.2681505859375,9.98860932617187,-0.526724365234375
2.80203392317663,-0.258573779296875,9.98382092285156,-0.521935961914062
2.80437205376474,-0.253785375976562,9.95509050292969,-0.569819995117188
2.80671018435284,-0.258573779296875,9.99339772949219,-0.545877978515625
2.80904831494095,-0.234631762695312,9.97903251953125,-0.55545478515625
2.81127633512324,-0.2681505859375,9.96945571289062,-0.51714755859375
2.81350435530553,-0.229843359375,9.96945571289062,-0.569819995117188
2.81573237548782,-0.225054956054687,9.95030209960937,-0.560243188476563
2.81784888948522,-0.239420166015625,9.94072529296875,-0.526724365234375
2.81996540348262,-0.253785375976562,9.95987890625,-0.550666381835937
2.82208191748001,-0.272938989257812,9.9981861328125,-0.565031591796875
2.82420120220224,-0.239420166015625,10.0029745361328,-0.588973608398437
2.82632048692446,-0.220266552734375,9.96945571289062,-0.550666381835937
2.82843977164668,-0.205901342773437,9.97903251953125,-0.488417138671875
2.83056066406205,-0.186747729492187,9.94072529296875,-0.550666381835937
2.83268155647741,-0.258573779296875,9.96466730957031,-0.51714755859375
2.83480244889278,-0.201112939453125,9.98860932617187,-0.51714755859375
2.84127516281422,-0.181959326171875,9.97424411621094,-0.531512768554687
2.84774787673566,-0.229843359375,9.96945571289062,-0.483628735351562
2.8542205906571,-0.225054956054687,9.96945571289062,-0.545877978515625
2.85639463277588,-0.229843359375,9.97903251953125,-0.584185205078125
2.85856867489466,-0.253785375976562,9.97424411621094,-0.545877978515625
2.86074271701343,-0.21068974609375,9.94072529296875,-0.531512768554687
2.86290368531132,-0.215478149414062,9.97424411621094,-0.569819995117188
2.86506465360921,-0.205901342773437,9.93114848632812,-0.521935961914062
2.8672256219071,-0.215478149414062,9.98860932617187,-0.521935961914062
2.86937374967403,-0.239420166015625,9.96945571289062,-0.507570751953125
2.87152187744095,-0.258573779296875,9.97903251953125,-0.502782348632812
2.87367000520788,-0.225054956054687,9.99339772949219,-0.507570751953125
2.8758049276435,-0.244208569335937,9.98860932617187,-0.5746083984375
2.87793985007912,-0.225054956054687,9.9981861328125,-0.47884033203125
2.88007477251474,-0.21068974609375,9.99339772949219,-0.560243188476563
2.88226558054787,-0.244208569335937,9.98382092285156,-0.521935961914062
2.884456388581,-0.24899697265625,9.97424411621094,-0.469263525390625
2.88664719661414,-0.205901342773437,9.98382092285156,-0.512359155273437
2.88887517588931,-0.215478149414062,9.93114848632812,-0.47884033203125
2.89110315516449,-0.1915361328125,10.0125513427734,-0.584185205078125
2.89333113443966,-0.186747729492187,9.98382092285156,-0.550666381835937
2.89552308794443,-0.234631762695312,9.97424411621094,-0.550666381835937
2.89771504144921,-0.205901342773437,9.96466730957031,-0.55545478515625
2.89990699495398,-0.225054956054687,9.95030209960937,-0.545877978515625
2.90209747894921,-0.215478149414062,9.96945571289062,-0.4979939453125
2.90428796294443,-0.167594116210937,10.0029745361328,-0.550666381835937
2.90647844693966,-0.186747729492187,9.96466730957031,-0.536301171875
2.90866579410763,-0.158017309570312,10.0029745361328,-0.526724365234375
2.9108531412756,-0.186747729492187,9.96466730957031,-0.502782348632812
2.91304048844357,-0.201112939453125,9.99339772949219,-0.531512768554687
2.91522464349999,-0.1915361328125,9.94551369628906,-0.545877978515625
2.91740879855641,-0.215478149414062,9.94551369628906,-0.603338818359375
2.91959295361284,-0.1915361328125,9.96945571289062,-0.541089575195312
2.92177451654686,-0.17238251953125,9.96945571289062,-0.51714755859375
2.92395607948089,-0.205901342773437,9.93114848632812,-0.584185205078125
2.92613764241492,-0.205901342773437,9.97903251953125,-0.531512768554687
2.92831835318966,-0.201112939453125,9.96466730957031,-0.502782348632812
2.9304990639644,-0.21068974609375,9.99339772949219,-0.550666381835937
2.93267977473914,-0.186747729492187,9.95509050292969,-0.541089575195312
2.93804415372677,-0.1915361328125,9.94551369628906,-0.5746083984375
2.9434085327144,-0.229843359375,9.94072529296875,-0.536301171875
2.94877291170203,-0.215478149414062,9.97424411621094,-0.541089575195312
2.95088928724456,-0.225054956054687,10.0029745361328,-0.4979939453125
2.9530056627871,-0.201112939453125,9.94551369628906,-0.569819995117188
2.95512203832963,-0.244208569335937,9.94551369628906,-0.565031591796875
2.9572406784121,-0.229843359375,9.89762966308594,-0.550666381835937
2.95935931849456,-0.229843359375,10.0173397460938,-0.550666381835937
2.96147795857703,-0.205901342773437,9.9981861328125,-0.560243188476563
2.9635963315154,-0.220266552734375,9.98860932617187,-0.469263525390625
2.96571470445376,-0.215478149414062,9.96466730957031,-0.502782348632812
2.96783307739213,-0.220266552734375,9.94072529296875,-0.521935961914062
2.96995172724022,-0.244208569335937,9.97424411621094,-0.5746083984375
2.97207037708832,-0.234631762695312,9.98382092285156,-0.545877978515625
2.97418902693641,-0.177170922851562,9.93593688964844,-0.512359155273437
2.97636761732269,-0.220266552734375,9.96466730957031,-0.502782348632812
2.97854620770897,-0.225054956054687,9.98382092285156,-0.588973608398437
2.98072479809526,-0.201112939453125,10.0029745361328,-0.569819995117188
2.98290441094248,-0.220266552734375,10.0221281494141,-0.565031591796875
2.9850840237897,-0.220266552734375,9.9981861328125,-0.55545478515625
2.98726363663692,-0.205901342773437,10.0173397460938,-0.550666381835937
2.98941931167219,-0.196324536132812,10.0029745361328,-0.541089575195312
2.99157498670745,-0.215478149414062,9.98860932617187,-0.560243188476563
2.99373066174272,-0.205901342773437,9.98860932617187,-0.51714755859375
2.99585526185394,-0.229843359375,9.97903251953125,-0.512359155273437
2.99797986196516,-0.181959326171875,10.0221281494141,-0.521935961914062
3.00010446207638,-0.225054956054687,10.0125513427734,-0.55545478515625
3.00222130908159,-0.196324536132812,9.95030209960937,-0.493205541992187
3.0043381560868,-0.215478149414062,9.97424411621094,-0.531512768554687
3.00645500309201,-0.196324536132812,9.98860932617187,-0.47884033203125
3.0086373326276,-0.258573779296875,9.95509050292969,-0.493205541992187
3.01081966216319,-0.205901342773437,9.97424411621094,-0.531512768554687
3.01300199169878,-0.258573779296875,9.99339772949219,-0.584185205078125
3.01518472867794,-0.2681505859375,9.95987890625,-0.526724365234375
3.01736746565711,-0.21068974609375,9.95509050292969,-0.565031591796875
3.01955020263627,-0.186747729492187,9.94072529296875,-0.464475122070312
3.02173298122785,-0.21068974609375,9.94551369628906,-0.507570751953125
3.02391575981943,-0.220266552734375,9.96945571289062,-0.598550415039062
3.02609853841101,-0.225054956054687,9.95030209960937,-0.550666381835937
3.02820894563757,-0.225054956054687,9.99339772949219,-0.521935961914062
3.03031935286414,-0.225054956054687,9.97424411621094,-0.598550415039062
3.0324297600907,-0.181959326171875,9.95030209960937,-0.545877978515625
3.03446677213497,-0.196324536132812,9.94072529296875,-0.565031591796875
3.03650378417924,-0.1915361328125,10.0077629394531,-0.536301171875
3.03854079622351,-0.196324536132812,9.98382092285156,-0.5746083984375
3.04064470008636,-0.181959326171875,9.98382092285156,-0.541089575195312
3.0427486039492,-0.186747729492187,10.0029745361328,-0.5746083984375
3.04485250781205,-0.186747729492187,10.0173397460938,-0.502782348632812
3.04703268239972,-0.196324536132812,10.0269165527344,-0.536301171875
3.0492128569874,-0.1915361328125,9.98860932617187,-0.488417138671875
3.05139303157507,-0.196324536132812,10.0077629394531,-0.598550415039062
3.05357195681378,-0.143652099609375,10.0029745361328,-0.493205541992187
3.0557508820525,-0.138863696289063,10.0173397460938,-0.507570751953125
3.05792980729121,-0.17238251953125,10.0173397460938,-0.526724365234375
3.06010641813106,-0.17238251953125,10.0077629394531,-0.526724365234375
3.0622830289709,-0.158017309570312,9.98382092285156,-0.531512768554687
3.06445963981074,-0.167594116210937,9.98860932617187,-0.531512768554687
3.06663557845007,-0.15322890625,9.98860932617187,-0.521935961914062
3.06881151708939,-0.21068974609375,9.95509050292969,-0.536301171875
3.07098745572871,-0.177170922851562,9.96466730957031,-0.502782348632812
3.07315661264331,-0.196324536132812,9.95987890625,-0.47884033203125
3.07532576955792,-0.177170922851562,9.92636008300781,-0.545877978515625
3.07749492647252,-0.229843359375,9.96466730957031,-0.526724365234375
3.07963713650128,-0.253785375976562,9.90720646972656,-0.569819995117188
3.08177934653003,-0.205901342773437,9.9215716796875,-0.502782348632812
3.08392155655879,-0.244208569335937,9.95509050292969,-0.536301171875
3.08604388283917,-0.21068974609375,9.92636008300781,-0.579396801757812
3.08816620911956,-0.215478149414062,9.95030209960937,-0.560243188476563
3.09028853539994,-0.225054956054687,9.90720646972656,-0.541089575195312
3.09455214754187,-0.253785375976562,9.90241806640625,-0.63206923828125
3.0988157596838,-0.28730419921875,9.9215716796875,-0.5746083984375
3.10307937182573,-0.263362182617187,9.93114848632812,-0.579396801757812
3.10526490350976,-0.292092602539062,9.90241806640625,-0.526724365234375
3.10745043519379,-0.24899697265625,9.96945571289062,-0.560243188476563
3.10963596687782,-0.234631762695312,9.93114848632812,-0.560243188476563
3.11182199085785,-0.234631762695312,9.96945571289062,-0.507570751953125
3.11400801483789,-0.272938989257812,9.95987890625,-0.474051928710937
3.11619403881792,-0.234631762695312,9.96466730957031,-0.51714755859375
3.11838057701237,-0.258573779296875,9.99339772949219,-0.51714755859375
3.12056711520681,-0.239420166015625,9.98382092285156,-0.560243188476563
3.12275365340125,-0.225054956054687,9.97903251953125,-0.51714755859375
3.12494388245941,-0.205901342773437,9.98860932617187,-0.469263525390625
3.12713411151758,-0.1915361328125,9.98860932617187,-0.541089575195312
3.12932434057574,-0.201112939453125,9.97424411621094,-0.502782348632812
3.1315191009924,-0.186747729492187,10.0077629394531,-0.565031591796875
3.13371386140907,-0.201112939453125,9.98382092285156,-0.512359155273437
3.13590862182573,-0.177170922851562,9.97424411621094,-0.47884033203125
3.13810459274587,-0.205901342773437,9.98382092285156,-0.47884033203125
3.14030056366601,-0.215478149414062,9.98860932617187,-0.45968671875
3.14249653458615,-0.229843359375,10.0317049560547,-0.483628735351562
3.14464288666406,-0.196324536132812,10.0125513427734,-0.512359155273437
3.14678923874197,-0.177170922851562,9.95987890625,-0.483628735351562
3.14893559081988,-0.177170922851562,10.0029745361328,-0.536301171875
3.1532745113928,-0.143652099609375,9.99339772949219,-0.512359155273437
3.15761343196571,-0.205901342773437,10.0029745361328,-0.560243188476563
3.16195235253863,-0.225054956054687,9.99339772949219,-0.560243188476563
3.16413570746485,-0.201112939453125,10.0029745361328,-0.526724365234375
3.16631906239106,-0.21068974609375,9.9981861328125,-0.569819995117188
3.16850241731728,-0.17238251953125,9.96945571289062,-0.4979939453125
3.17068588774914,-0.181959326171875,10.0173397460938,-0.469263525390625
3.17286935818099,-0.201112939453125,10.0029745361328,-0.569819995117188
3.17505282861285,-0.220266552734375,10.0029745361328,-0.55545478515625
3.17720173931164,-0.158017309570312,9.97424411621094,-0.493205541992187
3.17935065001042,-0.21068974609375,9.98382092285156,-0.521935961914062
3.1814995607092,-0.21068974609375,9.97424411621094,-0.474051928710937
3.18361111083941,-0.201112939453125,9.96466730957031,-0.521935961914062
3.18572266096962,-0.201112939453125,9.92636008300781,-0.51714755859375
3.18783421109982,-0.162805712890625,9.96945571289062,-0.488417138671875
3.19001210807248,-0.186747729492187,9.96945571289062,-0.411802685546875
3.19219000504513,-0.21068974609375,9.96945571289062,-0.545877978515625
3.19436790201779,-0.196324536132812,9.96466730957031,-0.45968671875
3.19654563753211,-0.205901342773437,9.96466730957031,-0.502782348632812
3.19872337304644,-0.186747729492187,9.97903251953125,-0.526724365234375
3.20090110856076,-0.229843359375,9.97903251953125,-0.4979939453125
3.20307884695052,-0.181959326171875,9.98860932617187,-0.47884033203125
3.20525658534027,-0.239420166015625,9.97424411621094,-0.51714755859375
3.20743432373003,-0.244208569335937,9.95987890625,-0.4979939453125
3.20958114735199,-0.1915361328125,9.9981861328125,-0.526724365234375
3.21172797097395,-0.21068974609375,10.0029745361328,-0.526724365234375
3.21387479459591,-0.215478149414062,10.0029745361328,-0.502782348632812
3.21599017176605,-0.229843359375,9.96945571289062,-0.47884033203125
3.21810554893619,-0.201112939453125,9.96466730957031,-0.560243188476563
3.22022092610633,-0.239420166015625,9.99339772949219,-0.560243188476563
3.22240573676171,-0.196324536132812,9.93593688964844,-0.526724365234375
3.22459054741709,-0.205901342773437,9.98382092285156,-0.507570751953125
3.22677535807247,-0.225054956054687,9.97903251953125,-0.550666381835937
3.22892693722829,-0.215478149414062,9.97903251953125,-0.550666381835937
3.23107851638411,-0.1915361328125,9.95509050292969,-0.507570751953125
3.23323009553992,-0.181959326171875,10.0029745361328,-0.521935961914062
3.23534525504513,-0.162805712890625,9.98382092285156,-0.507570751953125
3.23746041455034,-0.215478149414062,9.98860932617187,-0.507570751953125
3.23957557405554,-0.196324536132812,9.98382092285156,-0.565031591796875
3.24169005701995,-0.21068974609375,9.95509050292969,-0.550666381835937
3.24380453998436,-0.21068974609375,9.96945571289062,-0.526724365234375
3.24591902294877,-0.196324536132812,9.92636008300781,-0.59376201171875
3.24803341362803,-0.215478149414062,9.98860932617187,-0.579396801757812
3.25014780430728,-0.215478149414062,9.95509050292969,-0.51714755859375
3.25226219498653,-0.181959326171875,9.97903251953125,-0.541089575195312
3.2544454615881,-0.205901342773437,9.97903251953125,-0.493205541992187
3.25662872818966,-0.205901342773437,9.92636008300781,-0.550666381835937
3.25881199479122,-0.215478149414062,9.96466730957031,-0.560243188476563
3.26096533425519,-0.1915361328125,9.97903251953125,-0.536301171875
3.26311867371917,-0.234631762695312,9.97903251953125,-0.541089575195312
3.26527201318314,-0.196324536132812,9.97424411621094,-0.507570751953125
3.26739239987476,-0.177170922851562,9.97903251953125,-0.541089575195312
3.26951278656639,-0.177170922851562,9.96466730957031,-0.464475122070312
3.27163317325801,-0.1915361328125,9.96945571289062,-0.565031591796875
3.27375328512867,-0.177170922851562,9.95987890625,-0.541089575195312
3.27587339699933,-0.196324536132812,9.97903251953125,-0.521935961914062
3.27799350886999,-0.196324536132812,9.96945571289062,-0.493205541992187
3.28011336911305,-0.196324536132812,10.0077629394531,-0.4979939453125
3.2822332293561,-0.181959326171875,10.0125513427734,-0.55545478515625
3.28435308959916,-0.177170922851562,9.99339772949219,-0.569819995117188
3.28653463528058,-0.21068974609375,10.0173397460938,-0.521935961914062
3.28871618096201,-0.181959326171875,10.0029745361328,-0.5746083984375
3.29089772664343,-0.181959326171875,10.0125513427734,-0.4979939453125
3.29308001483787,-0.181959326171875,10.0508585693359,-0.545877978515625
3.29526230303232,-0.143652099609375,10.0412817626953,-0.4979939453125
3.29744459122676,-0.138863696289063,10.0077629394531,-0.59376201171875
3.29962692423458,-0.1915361328125,10.0077629394531,-0.526724365234375
3.30180925724239,-0.196324536132812,10.0173397460938,-0.569819995117188
3.30399159025021,-0.162805712890625,10.0412817626953,-0.55545478515625
3.3060223572858,-0.201112939453125,10.0269165527344,-0.541089575195312
3.30805312432138,-0.205901342773437,10.0317049560547,-0.55545478515625
3.31008389135697,-0.196324536132812,10.0317049560547,-0.51714755859375
3.31218970787173,-0.186747729492187,10.0125513427734,-0.565031591796875
3.31429552438649,-0.196324536132812,10.0221281494141,-0.507570751953125
3.31640134090124,-0.201112939453125,10.036493359375,-0.531512768554687
3.31850293964256,-0.167594116210937,9.98860932617187,-0.4979939453125
3.32060453838388,-0.205901342773437,9.97903251953125,-0.550666381835937
3.3227061371252,-0.205901342773437,10.0269165527344,-0.488417138671875
3.32480284849673,-0.24899697265625,10.0077629394531,-0.469263525390625
3.32689955986826,-0.229843359375,9.95030209960937,-0.483628735351562
3.32899627123979,-0.229843359375,9.9981861328125,-0.507570751953125
3.33109096644378,-0.201112939453125,9.95987890625,-0.579396801757812
3.33318566164778,-0.24899697265625,9.98860932617187,-0.565031591796875
3.33528035685177,-0.201112939453125,10.0269165527344,-0.507570751953125
3.33737488560611,-0.229843359375,9.99339772949219,-0.550666381835937
3.33946941436045,-0.244208569335937,10.0556469726563,-0.493205541992187
3.34156394311479,-0.186747729492187,9.96466730957031,-0.526724365234375
3.34470235541405,-0.201112939453125,9.98382092285156,-0.493205541992187
3.34784076771331,-0.220266552734375,9.97424411621094,-0.521935961914062
3.35097918001257,-0.253785375976562,9.96945571289062,-0.541089575195312
3.35732130794226,-0.186747729492187,10.0029745361328,-0.493205541992187
3.36366343587195,-0.177170922851562,9.93114848632812,-0.560243188476563
3.37000556380165,-0.186747729492187,9.97903251953125,-0.4979939453125
3.37212347330686,-0.162805712890625,9.93593688964844,-0.531512768554687
3.37424138281207,-0.239420166015625,9.97424411621094,-0.545877978515625
3.37635929231728,-0.17238251953125,9.95030209960937,-0.488417138671875
3.37847445046615,-0.196324536132812,9.95030209960937,-0.55545478515625
3.38058960861502,-0.196324536132812,9.95030209960937,-0.560243188476563
3.38270476676389,-0.215478149414062,9.90241806640625,-0.507570751953125
3.38481909868663,-0.196324536132812,9.93114848632812,-0.502782348632812
3.38693343060937,-0.17238251953125,9.93114848632812,-0.560243188476563
3.38904776253211,-0.220266552734375,9.95509050292969,-0.502782348632812
3.39116182302473,-0.205901342773437,9.91678327636719,-0.531512768554687
3.39327588351736,-0.220266552734375,9.98382092285156,-0.541089575195312
3.39538994400998,-0.196324536132812,9.99339772949219,-0.521935961914062
3.39757377435937,-0.239420166015625,9.98382092285156,-0.526724365234375
3.39975760470876,-0.1915361328125,9.96945571289062,-0.565031591796875
3.40194143505815,-0.24899697265625,9.98860932617187,-0.474051928710937
3.40409544580034,-0.220266552734375,9.94072529296875,-0.536301171875
3.40624945654253,-0.229843359375,9.95987890625,-0.536301171875
3.40840346728471,-0.263362182617187,9.95030209960937,-0.550666381835937
3.41052328917057,-0.2681505859375,9.97903251953125,-0.550666381835937
3.41264311105642,-0.239420166015625,10.0077629394531,-0.51714755859375
3.41476293294227,-0.234631762695312,9.96945571289062,-0.536301171875
3.41688337396874,-0.263362182617187,9.95987890625,-0.521935961914062
3.41900381499522,-0.229843359375,9.96945571289062,-0.588973608398437
3.4211242560217,-0.201112939453125,10.0029745361328,-0.531512768554687
3.42324459147091,-0.181959326171875,10.0029745361328,-0.507570751953125
3.42536492692013,-0.186747729492187,10.0029745361328,-0.51714755859375
3.42748526236935,-0.205901342773437,9.95509050292969,-0.545877978515625
3.42966676128428,-0.2681505859375,10.0125513427734,-0.488417138671875
3.43184826019922,-0.215478149414062,10.0125513427734,-0.565031591796875
3.43402975911415,-0.205901342773437,9.9981861328125,-0.526724365234375
3.43613631835894,-0.234631762695312,9.96945571289062,-0.584185205078125
3.43824287760373,-0.225054956054687,9.97424411621094,-0.493205541992187
3.44034943684852,-0.234631762695312,9.97424411621094,-0.545877978515625
3.44237761382335,-0.1915361328125,9.95987890625,-0.560243188476563
3.44440579079817,-0.201112939453125,9.95030209960937,-0.55545478515625
3.446433967773,-0.215478149414062,9.97903251953125,-0.51714755859375
3.44845989762326,-0.244208569335937,9.97424411621094,-0.51714755859375
3.45048582747352,-0.244208569335937,10.0077629394531,-0.541089575195312
3.45251175732378,-0.181959326171875,9.94551369628906,-0.560243188476563
3.4545373349605,-0.215478149414062,9.99339772949219,-0.531512768554687
3.45656291259721,-0.225054956054687,9.95509050292969,-0.550666381835937
3.45858849023393,-0.181959326171875,9.96945571289062,-0.502782348632812
3.46068173144487,-0.196324536132812,9.95030209960937,-0.565031591796875
3.46277497265581,-0.196324536132812,9.95987890625,-0.584185205078125
3.46486821386674,-0.196324536132812,9.93114848632812,-0.603338818359375
3.46696225840885,-0.239420166015625,9.9215716796875,-0.550666381835937
3.46905630295095,-0.205901342773437,9.97903251953125,-0.588973608398437
3.47115034749305,-0.225054956054687,9.92636008300781,-0.4979939453125
3.47324448605641,-0.215478149414062,9.95030209960937,-0.488417138671875
3.47533862461978,-0.196324536132812,9.94072529296875,-0.55545478515625
3.47743276318315,-0.229843359375,9.96466730957031,-0.545877978515625
3.47952131922699,-0.201112939453125,9.98382092285156,-0.45968671875
3.48160987527082,-0.21068974609375,9.96466730957031,-0.4979939453125
3.48369843131466,-0.220266552734375,9.96945571289062,-0.454898315429687
3.48575911626474,-0.17238251953125,9.96945571289062,-0.55545478515625
3.48781980121483,-0.253785375976562,9.94551369628906,-0.493205541992187
3.48988048616492,-0.239420166015625,9.96466730957031,-0.569819995117188
3.49198963926822,-0.201112939453125,9.95509050292969,-0.55545478515625
3.49409879237151,-0.21068974609375,9.97903251953125,-0.507570751953125
3.49620794547481,-0.201112939453125,9.97903251953125,-0.526724365234375
3.49831746413801,-0.205901342773437,9.97424411621094,-0.488417138671875
3.5004269828012,-0.177170922851562,9.95509050292969,-0.521935961914062
3.50253650146439,-0.205901342773437,9.97424411621094,-0.521935961914062
3.50464638330033,-0.225054956054687,9.95509050292969,-0.536301171875
3.50675626513627,-0.1915361328125,9.93114848632812,-0.531512768554687
3.50886614697221,-0.215478149414062,9.95030209960937,-0.488417138671875
3.5109743015946,-0.225054956054687,9.95987890625,-0.569819995117188
3.513082456217,-0.21068974609375,9.94551369628906,-0.560243188476563
3.51519061083939,-0.201112939453125,9.96466730957031,-0.541089575195312
3.51722977555294,-0.181959326171875,9.98382092285156,-0.526724365234375
3.51926894026648,-0.253785375976562,9.95987890625,-0.454898315429687
3.52130810498002,-0.196324536132812,9.97424411621094,-0.51714755859375
3.52341535953731,-0.205901342773437,9.95509050292969,-0.550666381835937
3.5255226140946,-0.21068974609375,9.95987890625,-0.550666381835937
3.5276298686519,-0.177170922851562,9.9215716796875,-0.502782348632812
3.5297391671545,-0.220266552734375,9.95987890625,-0.507570751953125
3.5318484656571,-0.205901342773437,9.95509050292969,-0.435744702148437
3.53395776415971,-0.201112939453125,9.9981861328125,-0.507570751953125
3.53606691943314,-0.201112939453125,9.92636008300781,-0.493205541992187
3.53817607470658,-0.229843359375,9.95030209960937,-0.531512768554687
3.54028522998002,-0.205901342773437,9.91199487304687,-0.47884033203125
3.54239672596526,-0.234631762695312,9.95030209960937,-0.483628735351562
3.5445082219505,-0.1915361328125,9.96466730957031,-0.493205541992187
3.54661971793574,-0.215478149414062,9.96945571289062,-0.55545478515625
3.54873147748435,-0.186747729492187,9.97424411621094,-0.541089575195312
3.55084323703296,-0.220266552734375,9.96945571289062,-0.541089575195312
3.55295499658157,-0.229843359375,9.93593688964844,-0.493205541992187
3.55506805810501,-0.244208569335937,9.97903251953125,-0.521935961914062
3.55718111962845,-0.239420166015625,9.96945571289062,-0.483628735351562
3.55929418115189,-0.220266552734375,9.97424411621094,-0.5746083984375
3.56141094363019,-0.225054956054687,9.93593688964844,-0.47884033203125
3.56352770610849,-0.186747729492187,9.96466730957031,-0.45968671875
3.56564446858679,-0.220266552734375,9.93593688964844,-0.502782348632812
3.5677625437821,-0.234631762695312,9.98860932617187,-0.426167895507812
3.56988061897741,-0.215478149414062,10.0125513427734,-0.488417138671875
3.57199869417272,-0.234631762695312,9.95030209960937,-0.507570751953125
3.57411771739321,-0.186747729492187,9.98860932617187,-0.493205541992187
3.57623674061369,-0.158017309570312,9.95987890625,-0.569819995117188
3.57835576383418,-0.186747729492187,9.94551369628906,-0.47884033203125
3.58047491151213,-0.239420166015625,9.98382092285156,-0.493205541992187
3.58259405919008,-0.1915361328125,9.95987890625,-0.488417138671875
3.58471320686803,-0.239420166015625,9.95509050292969,-0.47884033203125
3.58682270361283,-0.239420166015625,9.95987890625,-0.507570751953125
3.58893220035762,-0.220266552734375,9.96945571289062,-0.507570751953125
3.59104169710241,-0.220266552734375,9.96945571289062,-0.493205541992187
3.59314976047047,-0.220266552734375,9.93114848632812,-0.550666381835937
3.59525782383852,-0.234631762695312,9.94072529296875,-0.55545478515625
3.59736588720658,-0.234631762695312,9.95987890625,-0.526724365234375
3.59947366889061,-0.229843359375,9.93593688964844,-0.565031591796875
3.60158145057464,-0.263362182617187,9.95030209960937,-0.4979939453125
3.60368923225867,-0.229843359375,9.95030209960937,-0.565031591796875
3.60586919287065,-0.229843359375,9.99339772949219,-0.507570751953125
3.60804915348263,-0.21068974609375,9.97424411621094,-0.507570751953125
3.61022911409461,-0.24899697265625,9.92636008300781,-0.51714755859375
3.61240987613888,-0.229843359375,9.96945571289062,-0.469263525390625
3.61459063818315,-0.225054956054687,9.98382092285156,-0.512359155273437
3.61677140022742,-0.215478149414062,9.95030209960937,-0.464475122070312
3.61880598073958,-0.253785375976562,9.95509050292969,-0.45968671875
3.62084056125173,-0.21068974609375,9.95987890625,-0.536301171875
3.62287514176388,-0.201112939453125,9.98860932617187,-0.474051928710937
3.62490807090885,-0.196324536132812,9.97424411621094,-0.521935961914062
3.62694100005382,-0.196324536132812,9.96466730957031,-0.502782348632812
3.62897392919878,-0.225054956054687,9.98382092285156,-0.521935961914062
3.63100522151649,-0.196324536132812,9.98382092285156,-0.512359155273437
3.6330365138342,-0.205901342773437,9.98860932617187,-0.541089575195312
3.63506780615191,-0.196324536132812,9.97424411621094,-0.51714755859375
3.6370981153967,-0.205901342773437,9.93114848632812,-0.541089575195312
3.63912842464149,-0.205901342773437,9.98860932617187,-0.474051928710937
3.64115873388628,-0.239420166015625,9.97424411621094,-0.464475122070312
3.64318509760155,-0.1915361328125,10.0029745361328,-0.488417138671875
3.64521146131683,-0.21068974609375,9.95987890625,-0.4979939453125
3.64723782503211,-0.21068974609375,9.96466730957031,-0.560243188476563
3.64932951090451,-0.177170922851562,9.94551369628906,-0.536301171875
3.6514211967769,-0.272938989257812,9.98860932617187,-0.526724365234375
3.6535128826493,-0.239420166015625,9.97424411621094,-0.536301171875
3.6555891108828,-0.239420166015625,10.0125513427734,-0.579396801757812
3.65766533911631,-0.234631762695312,9.97424411621094,-0.507570751953125
3.65974156734982,-0.234631762695312,9.96945571289062,-0.51714755859375
3.66179579028819,-0.244208569335937,9.96945571289062,-0.536301171875
3.66385001322655,-0.201112939453125,9.97903251953125,-0.493205541992187
3.66590423616492,-0.196324536132812,9.92636008300781,-0.521935961914062
3.66794204182899,-0.201112939453125,9.98382092285156,-0.45968671875
3.66997984749305,-0.186747729492187,9.97903251953125,-0.45968671875
3.67201765315711,-0.177170922851562,9.98382092285156,-0.512359155273437
3.67405445176822,-0.229843359375,9.97424411621094,-0.512359155273437
3.67609125037933,-0.167594116210937,9.96945571289062,-0.493205541992187
3.67812804899044,-0.196324536132812,9.95030209960937,-0.507570751953125
3.68023424462846,-0.215478149414062,9.96945571289062,-0.47884033203125
3.68234044026648,-0.215478149414062,9.95030209960937,-0.531512768554687
3.6844466359045,-0.21068974609375,9.94551369628906,-0.531512768554687
3.68655577869964,-0.225054956054687,9.97903251953125,-0.44053310546875
3.68866492149478,-0.201112939453125,9.95030209960937,-0.493205541992187
3.69077406428991,-0.229843359375,9.95987890625,-0.47884033203125
3.69288335237585,-0.21068974609375,9.94551369628906,-0.4979939453125
3.69499264046179,-0.201112939453125,9.95509050292969,-0.464475122070312
3.69710192854773,-0.196324536132812,9.96466730957031,-0.541089575195312
3.69914216357377,-0.21068974609375,9.93593688964844,-0.4979939453125
3.70118239859981,-0.239420166015625,9.98860932617187,-0.464475122070312
3.70322263362585,-0.220266552734375,9.99339772949219,-0.531512768554687
3.70518427077863,-0.229843359375,9.97903251953125,-0.464475122070312
3.70714590793141,-0.239420166015625,9.94551369628906,-0.464475122070312
3.70910754508418,-0.225054956054687,9.92636008300781,-0.45968671875
3.71113592909026,-0.239420166015625,9.99339772949219,-0.4979939453125
3.71316431309634,-0.205901342773437,10.0077629394531,-0.526724365234375
3.71519269710241,-0.239420166015625,9.94072529296875,-0.541089575195312
3.71722435758419,-0.239420166015625,9.95030209960937,-0.488417138671875
3.71925601806596,-0.21068974609375,9.94551369628906,-0.445321508789062
3.72128767854773,-0.220266552734375,9.97903251953125,-0.493205541992187
3.72332075504512,-0.225054956054687,9.93593688964844,-0.507570751953125
3.72535383154252,-0.239420166015625,9.94551369628906,-0.536301171875
3.72738690803991,-0.239420166015625,9.94551369628906,-0.545877978515625
3.7294200390078,-0.239420166015625,10.0077629394531,-0.488417138671875
3.73145316997568,-0.234631762695312,9.97903251953125,-0.512359155273437
3.73348630094356,-0.21068974609375,9.99339772949219,-0.47884033203125
3.73551980550085,-0.225054956054687,9.98382092285156,-0.4979939453125
3.73755331005814,-0.215478149414062,9.91678327636719,-0.493205541992187
3.73958681461543,-0.229843359375,9.96466730957031,-0.565031591796875
3.74168172672481,-0.24899697265625,9.94551369628906,-0.493205541992187
3.74377663883418,-0.258573779296875,9.97903251953125,-0.531512768554687
3.74587155094356,-0.229843359375,9.9981861328125,-0.526724365234375
3.74794396352765,-0.220266552734375,9.99339772949219,-0.426167895507812
3.75001637611174,-0.263362182617187,9.9981861328125,-0.469263525390625
3.75208878869583,-0.225054956054687,10.0029745361328,-0.45968671875
3.7541295798064,-0.1915361328125,10.0029745361328,-0.416591088867187
3.75617037091697,-0.181959326171875,9.98860932617187,-0.454898315429687
3.75821116202754,-0.21068974609375,10.036493359375,-0.469263525390625
3.76024175165428,-0.186747729492187,9.97903251953125,-0.507570751953125
3.76227234128101,-0.1915361328125,9.99339772949219,-0.488417138671875
3.76430293090775,-0.205901342773437,10.0125513427734,-0.469263525390625
3.76633275637433,-0.181959326171875,9.95509050292969,-0.488417138671875
3.76836258184091,-0.162805712890625,9.98382092285156,-0.47884033203125
3.77039240730749,-0.225054956054687,9.98382092285156,-0.45968671875
3.77248712280228,-0.177170922851562,10.0125513427734,-0.47884033203125
3.77458183829707,-0.196324536132812,9.9981861328125,-0.536301171875
3.77667655379186,-0.253785375976562,10.0029745361328,-0.464475122070312
3.77877208563865,-0.21068974609375,9.98382092285156,-0.493205541992187
3.78086761748543,-0.21068974609375,9.98860932617187,-0.512359155273437
3.78296314933222,-0.244208569335937,9.98382092285156,-0.502782348632812
3.785028610758,-0.215478149414062,9.97903251953125,-0.521935961914062
3.78709407218378,-0.225054956054687,10.036493359375,-0.526724365234375
3.78915953360956,-0.21068974609375,10.036493359375,-0.47884033203125
3.79119459773716,-0.244208569335937,10.0125513427734,-0.454898315429687
3.79322966186477,-0.229843359375,9.99339772949219,-0.560243188476563
3.79526472599238,-0.225054956054687,9.99339772949219,-0.526724365234375
3.79729931610739,-0.229843359375,10.0077629394531,-0.469263525390625
3.79933390622241,-0.220266552734375,9.96945571289062,-0.512359155273437
3.80136849633743,-0.21068974609375,10.0077629394531,-0.493205541992187
3.80347231523934,-0.1915361328125,9.99339772949219,-0.5746083984375
3.80557613414125,-0.239420166015625,10.036493359375,-0.51714755859375
3.80767995304316,-0.21068974609375,9.97424411621094,-0.531512768554687
3.80978320331442,-0.162805712890625,9.9981861328125,-0.588973608398437
3.81188645358569,-0.229843359375,10.0317049560547,-0.512359155273437
3.81398970385696,-0.244208569335937,9.98860932617187,-0.541089575195312
3.81605907603578,-0.21068974609375,10.0029745361328,-0.521935961914062
3.8181284482146,-0.220266552734375,10.0077629394531,-0.51714755859375
3.82019782039341,-0.244208569335937,10.0317049560547,-0.4979939453125
3.82223326651971,-0.239420166015625,10.0508585693359,-0.502782348632812
3.82426871264602,-0.21068974609375,10.0173397460938,-0.502782348632812
3.82630415877232,-0.196324536132812,10.0460701660156,-0.483628735351562
3.82841253724454,-0.220266552734375,10.0460701660156,-0.493205541992187
3.83052091571676,-0.225054956054687,9.97903251953125,-0.474051928710937
3.83262929418898,-0.215478149414062,10.0029745361328,-0.612915625
3.83473860554966,-0.177170922851562,10.0317049560547,-0.488417138671875
3.83684791691034,-0.15322890625,10.0125513427734,-0.430956298828125
3.83895722827101,-0.201112939453125,9.9981861328125,-0.483628735351562
3.84106692217292,-0.21068974609375,9.96945571289062,-0.493205541992187
3.84317661607483,-0.239420166015625,10.0029745361328,-0.464475122070312
3.84528630997674,-0.234631762695312,9.98860932617187,-0.4979939453125
3.84736173890469,-0.215478149414062,9.97424411621094,-0.536301171875
3.84943716783265,-0.225054956054687,9.92636008300781,-0.469263525390625
3.8515125967606,-0.239420166015625,9.96945571289062,-0.454898315429687
3.85351470499627,-0.220266552734375,9.95509050292969,-0.493205541992187
3.85551681323195,-0.239420166015625,9.95030209960937,-0.47884033203125
3.85751892146763,-0.225054956054687,9.95030209960937,-0.474051928710937
3.85948103409783,-0.215478149414062,9.99339772949219,-0.512359155273437
3.86144314672804,-0.225054956054687,9.95030209960937,-0.512359155273437
3.86340525935825,-0.258573779296875,9.94551369628906,-0.4979939453125
3.8654331226395,-0.282515795898438,9.95987890625,-0.560243188476563
3.86746098592075,-0.253785375976562,9.98860932617187,-0.565031591796875
3.869488849202,-0.277727392578125,9.96945571289062,-0.541089575195312
3.87152209214905,-0.244208569335937,9.97903251953125,-0.51714755859375
3.87355533509609,-0.253785375976562,9.94551369628906,-0.531512768554687
3.87558857804314,-0.263362182617187,9.95509050292969,-0.526724365234375
3.87762285365078,-0.2681505859375,9.97424411621094,-0.502782348632812
3.87965712925842,-0.272938989257812,9.96466730957031,-0.526724365234375
3.88169140486606,-0.258573779296875,9.9215716796875,-0.512359155273437
3.88372571351406,-0.239420166015625,9.97903251953125,-0.545877978515625
3.88576002216207,-0.229843359375,9.95987890625,-0.512359155273437
3.88779433081007,-0.277727392578125,10.0077629394531,-0.483628735351562
3.88982865958611,-0.239420166015625,9.97903251953125,-0.4979939453125
3.89186298836215,-0.220266552734375,9.9981861328125,-0.51714755859375
3.89389731713819,-0.215478149414062,10.0029745361328,-0.469263525390625
3.89606108741091,-0.17238251953125,9.96466730957031,-0.435744702148437
3.89822485768362,-0.215478149414062,9.96466730957031,-0.531512768554687
3.90038862795633,-0.186747729492187,9.95030209960937,-0.4213794921875
3.90251084987112,-0.1915361328125,9.97903251953125,-0.474051928710937
3.9046330717859,-0.196324536132812,9.93593688964844,-0.44053310546875
3.90675529370069,-0.215478149414062,9.94551369628906,-0.507570751953125
3.90883014379834,-0.220266552734375,9.94072529296875,-0.483628735351562
3.910904993896,-0.1915361328125,9.91678327636719,-0.426167895507812
3.91297984399365,-0.186747729492187,9.94072529296875,-0.469263525390625
3.91501644512213,-0.205901342773437,9.97424411621094,-0.454898315429687
3.9170530462506,-0.201112939453125,9.93593688964844,-0.464475122070312
3.91908964737907,-0.229843359375,9.95030209960937,-0.450109912109375
3.92112549400451,-0.239420166015625,9.93593688964844,-0.407014282226562
3.92316134062994,-0.196324536132812,9.91199487304687,-0.474051928710937
3.92519718725538,-0.1915361328125,9.94551369628906,-0.464475122070312
3.92723082641553,-0.220266552734375,9.92636008300781,-0.45968671875
3.92926446557569,-0.229843359375,9.94072529296875,-0.454898315429687
3.93129810473585,-0.239420166015625,9.94551369628906,-0.454898315429687
3.93750741338385,-0.24899697265625,9.97424411621094,-0.507570751953125
3.94371672203185,-0.244208569335937,9.97424411621094,-0.569819995117188
3.94992603067986,-0.215478149414062,9.98382092285156,-0.521935961914062
3.9520074711638,-0.205901342773437,9.94072529296875,-0.541089575195312
3.95408891164774,-0.229843359375,9.95509050292969,-0.598550415039062
3.95617035213168,-0.225054956054687,10.0077629394531,-0.588973608398437
3.95821492217291,-0.229843359375,9.95509050292969,-0.55545478515625
3.96025949221414,-0.215478149414062,9.97903251953125,-0.588973608398437
3.96230406225537,-0.24899697265625,10.0029745361328,-0.598550415039062
3.96433934719461,-0.253785375976562,9.94072529296875,-0.588973608398437
3.96637463213384,-0.239420166015625,9.94072529296875,-0.579396801757812
3.96840991707308,-0.239420166015625,9.95509050292969,-0.545877978515625
3.97044464417811,-0.2681505859375,9.95509050292969,-0.565031591796875
3.97247937128315,-0.24899697265625,9.93114848632812,-0.622492431640625
3.97451409838818,-0.258573779296875,9.98860932617187,-0.617704028320312
3.9766190400657,-0.263362182617187,9.94072529296875,-0.550666381835937
3.97872398174321,-0.272938989257812,9.98382092285156,-0.59376201171875
3.98082892342073,-0.220266552734375,9.97903251953125,-0.560243188476563
3.98293576700797,-0.258573779296875,9.95987890625,-0.646434448242187
3.98504261059521,-0.263362182617187,9.94551369628906,-0.63206923828125
3.98714945418245,-0.234631762695312,10.0077629394531,-0.565031591796875
3.98922239542594,-0.21068974609375,9.99339772949219,-0.59376201171875
3.99129533666943,-0.225054956054687,9.97424411621094,-0.63206923828125
3.99336827791292,-0.24899697265625,9.99339772949219,-0.59376201171875
3.99540605769808,-0.24899697265625,9.95509050292969,-0.612915625
3.99744383748324,-0.229843359375,9.97424411621094,-0.603338818359375
3.99948161726839,-0.1915361328125,9.98382092285156,-0.584185205078125
4.0015188861486,-0.24899697265625,9.97903251953125,-0.603338818359375
4.00355615502881,-0.21068974609375,9.98382092285156,-0.617704028320312
4.00559342390902,-0.253785375976562,9.98860932617187,-0.6512228515625
4.00769986905876,-0.24899697265625,9.95509050292969,-0.617704028320312
4.0098063142085,-0.21068974609375,10.0173397460938,-0.646434448242187
4.01191275935824,-0.277727392578125,9.98860932617187,-0.675164868164063
4.01402494984218,-0.225054956054687,9.99339772949219,-0.617704028320312
4.01613714032612,-0.21068974609375,9.9981861328125,-0.656011254882812
4.01824933081006,-0.234631762695312,9.9981861328125,-0.5746083984375
4.02032841018289,-0.220266552734375,10.0029745361328,-0.588973608398437
4.02240748955572,-0.225054956054687,10.0269165527344,-0.608127221679687
4.02448656892855,-0.177170922851562,9.9981861328125,-0.622492431640625
4.02652919582742,-0.205901342773437,9.96945571289062,-0.588973608398437
4.02857182272629,-0.177170922851562,9.9981861328125,-0.550666381835937
4.03061444962517,-0.181959326171875,9.94072529296875,-0.608127221679687
4.03271811835346,-0.201112939453125,9.98382092285156,-0.536301171875
4.03482178708176,-0.215478149414062,9.96945571289062,-0.545877978515625
4.03692545581006,-0.205901342773437,9.95987890625,-0.545877978515625
4.03902994078185,-0.225054956054687,9.97424411621094,-0.545877978515625
4.04113442575364,-0.177170922851562,9.99339772949219,-0.59376201171875
4.04323891072543,-0.1915361328125,9.93114848632812,-0.617704028320312
4.04534378420633,-0.1915361328125,9.97903251953125,-0.550666381835937
4.04744865768723,-0.17238251953125,9.96466730957031,-0.545877978515625
4.04955353116814,-0.1915361328125,9.97903251953125,-0.569819995117188
4.0516251438526,-0.17238251953125,9.94551369628906,-0.603338818359375
4.05369675653706,-0.196324536132812,9.97424411621094,-0.603338818359375
4.05576836922152,-0.181959326171875,9.95030209960937,-0.588973608398437
4.05780638186259,-0.196324536132812,9.93114848632812,-0.541089575195312
4.05984439450364,-0.201112939453125,9.91678327636719,-0.656011254882812
4.0618824071447,-0.205901342773437,9.93114848632812,-0.622492431640625
4.06398214439514,-0.239420166015625,9.92636008300781,-0.598550415039062
4.06608188164557,-0.215478149414062,9.90720646972656,-0.694318481445312
4.06818161889601,-0.277727392578125,9.90241806640625,-0.5746083984375
4.07028191549974,-0.234631762695312,9.93114848632812,-0.565031591796875
4.07238221210347,-0.258573779296875,9.89284125976562,-0.656011254882812
4.0744825087072,-0.21068974609375,9.90241806640625,-0.656011254882812
4.07658317477708,-0.277727392578125,9.91199487304687,-0.569819995117188
4.07868384084696,-0.277727392578125,9.86889924316406,-0.612915625
4.08078450691684,-0.253785375976562,9.86889924316406,-0.665588061523437
4.08285434578403,-0.311246215820312,9.87847604980469,-0.584185205078125
4.08492418465122,-0.263362182617187,9.90720646972656,-0.584185205078125
4.0869940235184,-0.24899697265625,9.93593688964844,-0.63206923828125
4.08903251657396,-0.301669409179687,9.91199487304687,-0.665588061523437
4.09107100962951,-0.296881005859375,9.93593688964844,-0.603338818359375
4.09310950268507,-0.296881005859375,9.94551369628906,-0.665588061523437
4.0952160610618,-0.339976635742188,9.9215716796875,-0.612915625
4.09732261943854,-0.330399829101562,9.96945571289062,-0.684741674804688
4.09942917781528,-0.320823022460937,9.95509050292969,-0.627280834960937
4.10150006708394,-0.339976635742188,9.95987890625,-0.699106884765625
4.1035709563526,-0.311246215820312,10.0125513427734,-0.6512228515625
4.10564184562127,-0.320823022460937,9.96945571289062,-0.675164868164063
4.10763813376146,-0.282515795898438,9.95030209960937,-0.675164868164063
4.10963442190165,-0.296881005859375,9.98382092285156,-0.636857641601562
4.11163071004184,-0.282515795898438,9.98382092285156,-0.6512228515625
4.11358830872891,-0.296881005859375,10.0077629394531,-0.656011254882812
4.11554590741597,-0.296881005859375,10.0029745361328,-0.70868369140625
4.11750350610304,-0.24899697265625,10.0029745361328,-0.63206923828125
4.11946065340122,-0.277727392578125,10.0077629394531,-0.684741674804688
4.12141780069939,-0.244208569335937,10.0029745361328,-0.684741674804688
4.12337494799757,-0.239420166015625,10.0173397460938,-0.636857641601562
4.12540369978794,-0.229843359375,9.97424411621094,-0.6512228515625
4.1274324515783,-0.244208569335937,9.98860932617187,-0.612915625
4.12946120336867,-0.196324536132812,9.96466730957031,-0.67037646484375
4.13149167119636,-0.205901342773437,9.94072529296875,-0.665588061523437
4.13352213902405,-0.229843359375,9.93593688964844,-0.636857641601562
4.13555260685174,-0.177170922851562,9.91199487304687,-0.742202514648437
4.13758379302253,-0.177170922851562,9.90241806640625,-0.7278373046875
4.13961497919332,-0.181959326171875,9.92636008300781,-0.723048901367187
4.14164616536411,-0.181959326171875,9.96466730957031,-0.737414111328125
4.14367777083286,-0.196324536132812,9.93114848632812,-0.699106884765625
4.14570937630161,-0.196324536132812,9.92636008300781,-0.675164868164063
4.14774098177035,-0.215478149414062,9.94072529296875,-0.699106884765625
4.14975305338494,-0.239420166015625,9.88805285644531,-0.703895288085937
4.15176512499952,-0.205901342773437,9.89284125976562,-0.70868369140625
4.1537771966141,-0.205901342773437,9.88805285644531,-0.689530078125
4.15582976605855,-0.220266552734375,9.86889924316406,-0.713472094726562
4.15788233550299,-0.225054956054687,9.89284125976562,-0.70868369140625
4.15993490494743,-0.229843359375,9.92636008300781,-0.756567724609375
4.1620437121306,-0.215478149414062,9.90241806640625,-0.76614453125
4.16415251931376,-0.225054956054687,9.93114848632812,-0.718260498046875
4.16626132649692,-0.220266552734375,9.91199487304687,-0.742202514648437
4.1683679075516,-0.239420166015625,9.95987890625,-0.761356127929687
4.17047448860629,-0.24899697265625,9.95987890625,-0.732625708007812
4.17258106966098,-0.205901342773437,9.95030209960937,-0.751779321289062
4.17468775911411,-0.215478149414062,9.95987890625,-0.751779321289062
4.17679444856723,-0.220266552734375,9.93593688964844,-0.794874951171875
4.17890113802036,-0.272938989257812,9.94072529296875,-0.775721337890625
4.18100901204379,-0.253785375976562,9.95509050292969,-0.723048901367187
4.18311688606723,-0.2681505859375,9.91678327636719,-0.74699091796875
4.18522476009067,-0.1915361328125,10.0125513427734,-0.70868369140625
4.18733573231289,-0.234631762695312,9.97424411621094,-0.7278373046875
4.18944670453511,-0.244208569335937,9.98382092285156,-0.775721337890625
4.19155767675733,-0.239420166015625,9.9981861328125,-0.737414111328125
4.19360253103251,-0.253785375976562,9.94551369628906,-0.756567724609375
4.19564738530768,-0.24899697265625,9.95987890625,-0.770932934570312
4.19769223958286,-0.234631762695312,9.95030209960937,-0.742202514648437
4.19973338899692,-0.234631762695312,9.97424411621094,-0.732625708007812
4.20177453841098,-0.2681505859375,9.96466730957031,-0.742202514648437
4.20381568782504,-0.272938989257812,9.93593688964844,-0.742202514648437
4.20901119571892,-0.316034619140625,9.83538041992187,-0.790086547851562
4.2142067036128,-0.316034619140625,9.86889924316406,-0.76614453125
4.21940221150668,-0.292092602539062,9.82580361328125,-0.770932934570312
4.22146677612257,-0.330399829101562,9.84974562988281,-0.732625708007812
4.22353134073845,-0.311246215820312,9.84974562988281,-0.780509741210937
4.22559590535434,-0.272938989257812,9.82101520996094,-0.780509741210937
4.22762972029575,-0.311246215820312,9.84016882324219,-0.828393774414062
4.22966353523715,-0.320823022460937,9.77791958007812,-0.799663354492188
4.23169735017856,-0.32561142578125,9.78749638671875,-0.852335791015625
4.23373085858785,-0.3447650390625,9.78270798339844,-0.775721337890625
4.23576436699714,-0.3447650390625,9.81622680664062,-0.761356127929687
4.23779787540643,-0.320823022460937,9.82101520996094,-0.876277807617187
4.2399030234099,-0.3064578125,9.80186159667969,-0.799663354492188
4.24200817141337,-0.339976635742188,9.79228479003906,-0.852335791015625
4.24411331941684,-0.316034619140625,9.82101520996094,-0.82360537109375
4.24622031192987,-0.320823022460937,9.79707319335937,-0.847547387695312
4.24832730444289,-0.301669409179687,9.83059201660156,-0.909796630859375
4.25043429695591,-0.263362182617187,9.80186159667969,-0.86191259765625
4.25250759789992,-0.301669409179687,9.79228479003906,-0.890643017578125
4.25458089884393,-0.277727392578125,9.79228479003906,-0.842758984375
4.25665419978794,-0.311246215820312,9.83538041992187,-0.866701000976562
4.25869396443638,-0.258573779296875,9.79707319335937,-0.90021982421875
4.26073372908481,-0.28730419921875,9.77791958007812,-0.847547387695312
4.26277349373325,-0.258573779296875,9.78749638671875,-0.914585034179687
4.26481300187127,-0.272938989257812,9.81143840332031,-0.93852705078125
4.26685251000929,-0.239420166015625,9.78749638671875,-0.837970581054687
4.26889201814732,-0.21068974609375,9.79707319335937,-0.905008227539062
4.27099764417813,-0.253785375976562,9.80186159667969,-0.952892260742187
4.27310327020895,-0.24899697265625,9.81143840332031,-0.933738647460937
4.27520889623976,-0.258573779296875,9.80665,-0.93852705078125
4.27731681572761,-0.201112939453125,9.7683427734375,-0.9576806640625
4.27942473521546,-0.234631762695312,9.79228479003906,-0.952892260742187
4.28153265470331,-0.225054956054687,9.80186159667969,-1.00556469726562
4.28360615090556,-0.186747729492187,9.78749638671875,-0.967257470703125
4.28567964710782,-0.229843359375,9.80186159667969,-0.967257470703125
4.28775314331008,-0.201112939453125,9.78270798339844,-0.9576806640625
4.28979148282831,-0.21068974609375,9.82580361328125,-1.02471831054687
4.29182982234654,-0.1915361328125,9.79228479003906,-0.97683427734375
4.29386816186476,-0.225054956054687,9.77791958007812,-0.948103857421875
4.29590562377883,-0.220266552734375,9.80665,-0.972045874023437
4.29794308569289,-0.177170922851562,9.78270798339844,-0.97683427734375
4.29998054760695,-0.177170922851562,9.82101520996094,-0.972045874023437
4.30208640443204,-0.177170922851562,9.80665,-0.928950244140625
4.30419226125712,-0.196324536132812,9.80665,-0.972045874023437
4.30629811808221,-0.17238251953125,9.81143840332031,-0.962469067382812
4.30840859648933,-0.13407529296875,9.84016882324219,-1.01035310058594
4.31051907489645,-0.177170922851562,9.81143840332031,-1.01035310058594
4.31262955330357,-0.215478149414062,9.81143840332031,-0.943315454101562
4.31470677916077,-0.181959326171875,9.81622680664062,-1.02950671386719
4.31678400501798,-0.225054956054687,9.81622680664062,-1.04866032714844
4.31886123087518,-0.17238251953125,9.77313117675781,-0.962469067382812
4.32104620868551,-0.17238251953125,9.84016882324219,-1.02471831054687
4.32323118649584,-0.181959326171875,9.85453403320312,-1.00077629394531
4.32541616430617,-0.1915361328125,9.87368764648437,-0.995987890625
4.32760082598152,-0.1915361328125,9.81143840332031,-0.9576806640625
4.32978548765687,-0.13407529296875,9.8449572265625,-0.933738647460937
4.33197014933221,-0.119710083007812,9.86889924316406,-1.00077629394531
4.33415381898282,-0.100556469726563,9.91199487304687,-1.01035310058594
4.33633748863343,-0.076614453125,9.883264453125,-1.04387192382812
4.33852115828404,-0.1149216796875,9.88805285644531,-1.00556469726562
4.3407038271751,-0.124498486328125,9.90720646972656,-1.00556469726562
4.34288649606616,-0.09576806640625,9.90241806640625,-0.967257470703125
4.34506916495722,-0.124498486328125,9.94072529296875,-0.93852705078125
4.34721759784567,-0.105344873046875,9.95509050292969,-1.01514150390625
4.34936603073413,-0.124498486328125,9.96945571289062,-0.9576806640625
4.35151446362258,-0.124498486328125,10.0269165527344,-0.90021982421875
4.35362625127449,-0.162805712890625,10.0460701660156,-0.909796630859375
4.3557380389264,-0.158017309570312,10.0269165527344,-0.933738647460937
4.35784982657831,-0.143652099609375,10.0700121826172,-0.93852705078125
4.35995887806485,-0.186747729492187,10.1274730224609,-0.866701000976562
4.3620679295514,-0.196324536132812,10.1514150390625,-0.82360537109375
4.36417698103794,-0.244208569335937,10.189722265625,-0.814028564453125
4.37163135519701,-0.330399829101562,10.6254669677734,-0.196324536132812
4.37908572935608,-0.296881005859375,10.6589857910156,-0.1149216796875
4.38654010351515,-0.320823022460937,10.6925046142578,-0.086191259765625
4.38864864897956,-0.32561142578125,10.6733510009766,-0.100556469726563
4.39075719444397,-0.320823022460937,10.802637890625,-0.028730419921875
4.39286573990838,-0.311246215820312,10.8648871337891,0.0622492431640625
4.39505121581983,-0.32561142578125,10.9415015869141,0.205901342773437
4.39723669173129,-0.320823022460937,10.9941740234375,0.301669409179687
4.39942216764275,-0.339976635742188,11.1186725097656,0.397437475585937
4.40153631629726,-0.320823022460937,11.2192289794922,0.512359155273437
4.40365046495178,-0.296881005859375,11.3533042724609,0.612915625
4.40576461360629,-0.316034619140625,11.4586491455078,0.76614453125
4.40787804709153,-0.320823022460937,11.6023012451172,0.82360537109375
4.40999148057678,-0.301669409179687,11.6693388916016,0.8810662109375
4.41210491406202,-0.32561142578125,11.8129909912109,0.948103857421875
4.41421786393181,-0.354341845703125,11.9087590576172,0.967257470703125
4.41633081380161,-0.316034619140625,12.028469140625,0.852335791015625
4.4184437636714,-0.2681505859375,12.1529676269531,0.837970581054687
4.42055645366706,-0.3447650390625,12.2343704833984,0.756567724609375
4.42266914366272,-0.292092602539062,12.4402718261719,0.761356127929687
4.42478183365837,-0.225054956054687,12.6605383789062,0.665588061523437
4.42696818706549,-0.282515795898438,12.8951701416016,0.646434448242187
4.42915454047261,-0.292092602539062,13.1537439208984,0.526724365234375
4.43134089387973,-0.239420166015625,13.4266829101562,0.416591088867187
4.43353155761671,-0.296881005859375,13.6661030761719,0.220266552734375
4.43572222135369,-0.301669409179687,13.9725608886719,0.167594116210937
4.43791288509067,-0.258573779296875,14.3221143310547,0.0383072265625
4.44116568465122,-0.076614453125,15.8113077636719,-0.4979939453125
4.44441848421176,-0.0383072265625,16.2901480957031,-0.608127221679687
4.44767128377231,0.047884033203125,16.7594116210938,-0.6512228515625
4.44979485544115,0.0909796630859375,17.2478287597656,-0.76614453125
4.45191842710998,0.110133276367187,17.7793415283203,-0.924161840820312
4.45404199877882,0.162805712890625,18.3347963134766,-0.852335791015625
4.45616493237257,-0.047884033203125,18.9429235351563,-1.13006318359375
4.45828786596633,-0.124498486328125,19.5318971435547,-1.3407529296875
4.46041079956008,-0.09576806640625,20.0634099121094,-1.4173673828125
4.46253362459263,0.0718260498046875,20.4512705810547,-1.59453830566406
4.46465644962518,-0.09576806640625,20.9684181396484,-1.68551796875
4.46677927465774,-0.105344873046875,21.3514904052734,-1.64242233886719
4.46890214244202,-0.148440502929687,21.6675250244141,-1.66636435546875
4.47102501022631,-0.201112939453125,21.8925799804687,-1.59932670898438
4.4731478780106,-0.301669409179687,21.9835596435547,-1.42694418945312
4.47537015155661,-0.3064578125,21.9596176269531,-1.37427175292969
4.47759242510261,-0.387860668945312,21.8111771240234,-1.21625444335937
4.47981469864862,-0.36391865234375,21.5190845214844,-1.10612116699219
4.48200153143942,-0.445321508789062,21.1120702392578,-1.02950671386719
4.48418836423022,-0.464475122070312,20.6763255371094,-0.895431420898437
4.48637519702102,-0.445321508789062,20.2070620117187,-0.928950244140625
4.48856042412605,-0.32561142578125,19.6947028564453,-0.809240161132812
4.49074565123109,-0.272938989257812,19.2398045410156,-0.684741674804688
4.49293087833613,-0.129286889648437,18.7609642089844,-0.59376201171875
4.4951160997988,-0.0335188232421875,18.4976020263672,-0.45968671875
4.49730132126147,0.047884033203125,18.2677586669922,-0.387860668945312
4.49948654272414,0.0526724365234375,18.1719906005859,-0.253785375976562
4.50167184008742,0.076614453125,18.1145297607422,-0.0814028564453125
4.5038571374507,0.0143652099609375,18.2821238769531,-0.0526724365234375
4.50604243481398,-0.13407529296875,18.4592947998047,0.0814028564453125
4.50819297924758,-0.426167895507812,18.7082917724609,0.263362182617187
4.51034352368117,-0.569819995117188,18.8519438720703,0.45968671875
4.51249406811477,-0.833182177734375,19.1871321044922,0.70868369140625
4.51460777167379,-1.01035310058594,19.4361290771484,0.775721337890625
4.51672147523282,-1.15879360351562,19.7473752929687,0.675164868164063
4.51883517879185,-0.97683427734375,20.1065055419922,0.612915625
4.52422326036194,2.834734765625,17.9134168212891,2.74854350585938
4.52961134193204,2.59531459960937,16.3619741455078,5.00388146972656
4.53499942350213,2.15956989746094,15.2893718017578,6.41167204589844
4.53717372797262,1.63284553222656,14.2167694580078,6.58884296875
4.53934803244311,0.5746083984375,12.9143237548828,5.48751020507812
4.54152233691359,-0.258573779296875,11.262324609375,4.29519777832031
4.54371017165752,-1.04866032714844,9.32780966796875,3.87381828613281
4.54589800640144,-1.13963999023438,7.12035573730469,4.73573088378906
4.54808584114536,-1.30723410644531,4.97036264648438,6.17704028320312
4.55042803602384,-1.71903679199219,2.84909997558594,7.41244833984375
4.55277023090231,-1.58017309570312,1.01992990722656,8.20732329101562
4.55511242578078,-1.70945998535156,-0.21068974609375,7.97269152832031
4.55745536501689,-1.59453830566406,-0.962469067382812,6.971915234375
4.559798304253,-1.36948334960938,-1.77170922851562,5.5545478515625
4.56214124348911,-1.17315881347656,-2.64798703613281,4.29998618164062
4.56448422493443,-0.78529814453125,-3.80199223632812,3.54820686035156
4.56682720637974,-0.541089575195312,-5.15232197265625,2.78206232910156
4.56917018782505,-0.617704028320312,-6.06690700683594,2.15478149414062
4.57151105088928,-1.06302553710937,-6.80432111816406,1.46046301269531
4.57385191395352,-0.952892260742187,-7.0485296875,0.972045874023437
4.57619277701776,-1.08217915039062,-7.12035573730469,0.359130249023437
4.57847073838929,-1.149216796875,-7.13950935058594,-0.44053310546875
4.58074869976081,-1.01514150390625,-7.18739338378906,-1.21625444335937
4.58302666113234,-1.10133276367187,-7.28316145019531,-2.07816704101562
4.58530675184415,-0.948103857421875,-7.35977590332031,-2.72460148925781
4.58758684255596,-0.8810662109375,-7.37892951660156,-2.96402165527344
4.58986693326776,-0.7278373046875,-7.50821640625,-3.08373173828125
4.59328774419441,-0.4213794921875,-7.24964262695312,-3.9456443359375
4.59670855512106,-0.392649072265625,-6.99106884765625,-4.1754876953125
4.60012936604771,-0.320823022460937,-6.78995590820312,-4.37660063476562
4.61255591213603,-1.54665427246094,0.119710083007812,-0.416591088867187
4.62498245822436,-1.59932670898438,-0.272938989257812,-0.545877978515625
4.63740900431269,-1.56580788574219,-0.63206923828125,-0.660799658203125
4.6395976341955,-1.50834704589844,-1.04866032714844,-0.70868369140625
4.64178626407831,-1.48919343261719,-1.35990654296875,-0.742202514648437
4.64397489396113,-1.32638771972656,-1.608903515625,-0.756567724609375
4.64616266837519,-1.24498486328125,-1.82917006835937,-0.86191259765625
4.64835044278925,-1.11569797363281,-2.00634099121094,-0.924161840820312
4.65053821720332,-1.00556469726562,-2.11647426757812,-0.986411083984375
4.65272554294117,-0.86191259765625,-2.20745393066406,-1.01992990722656
4.65491286867901,-0.70868369140625,-2.26970317382813,-1.01035310058594
4.65710019441686,-0.531512768554687,-2.21224233398438,-1.01992990722656
4.65928750615731,-0.32561142578125,-2.13562788085937,-0.995987890625
4.66147481789776,-0.225054956054687,-2.02549460449219,-1.04387192382812
4.66366212963822,-0.086191259765625,-1.88663090820312,-0.967257470703125
4.66591728914343,0.086191259765625,-1.7238251953125,-1.01035310058594
4.66817244864863,0.196324536132812,-1.50834704589844,-0.928950244140625
4.67042760815384,0.383072265625,-1.32638771972656,-0.86191259765625
4.67276141544551,0.4979939453125,-1.09654436035156,-0.857124194335937
4.67509522273718,0.598550415039062,-0.928950244140625,-0.828393774414062
4.67742903002885,0.742202514648437,-0.70868369140625,-0.742202514648437
4.67969675170853,0.818816967773437,-0.474051928710937,-0.737414111328125
4.68196447338822,0.948103857421875,-0.292092602539062,-0.775721337890625
4.68423219506791,0.962469067382812,-0.067037646484375,-0.718260498046875
4.68649446948197,1.02471831054687,0.0335188232421875,-0.76614453125
4.68875674389604,1.04866032714844,0.143652099609375,-0.780509741210937
4.6910190183101,1.13963999023438,0.28730419921875,-0.737414111328125
4.6932801557884,1.15400520019531,0.368707055664062,-0.694318481445312
4.6955412932667,1.10612116699219,0.407014282226562,-0.59376201171875
4.697802430745,1.13485158691406,0.512359155273437,-0.588973608398437
4.70013521470767,1.35032973632813,0.74699091796875,-0.234631762695312
4.70246799867035,1.15879360351562,1.302445703125,0.359130249023437
4.70480078263302,-0.28730419921875,2.068590234375,0.244208569335937
4.70713980878319,-1.79086284179687,2.42772048339844,-0.138863696289063
4.70947883493337,-2.19308872070312,2.55700737304687,0.148440502929687
4.71181786108354,-2.69108266601562,2.88261879882812,0.93852705078125
4.71401813679969,-4.13718046875,3.3327287109375,1.74297880859375
4.71621841251584,-4.47236870117187,3.63439812011719,2.37983645019531
4.71841868823198,-3.34230551757812,3.8690298828125,2.24097275390625
4.72281387296506,2.57137258300781,7.0102224609375,-1.79086284179687
4.72720905769813,3.21301862792969,8.14507404785156,-2.50912333984375
4.7316042424312,3.47159240722656,9.36132849121094,-3.1028853515625
4.73380089651106,3.67749375,10.8696755371094,-3.55778366699219
4.73599755059092,3.58172568359375,12.4833674560547,-3.87381828613281
4.73819420467078,3.600879296875,14.3747867675781,-4.19464130859375
4.7403908378088,3.6391865234375,16.3715509521484,-4.42448466796875
4.74258747094682,3.41413156738281,18.5933700927734,-4.38138903808594
4.74478410408484,3.05978972167969,20.9301109130859,-3.91691391601562
4.7469806815588,2.60489140625,23.1758720703125,-3.45243879394531
4.74917725903276,2.16914670410156,25.2109434814453,-2.63841022949219
4.75137383650671,1.608903515625,26.9634990966797,-2.01112939453125
4.75470224100975,-0.0718260498046875,29.9801931884766,-0.359130249023437
4.75803064551279,-0.316034619140625,29.3577007568359,-0.320823022460937
4.76135905001583,-0.454898315429687,28.1222927001953,-0.383072265625
4.76355610124196,-0.560243188476563,26.8437890136719,-0.292092602539062
4.76575315246809,-0.584185205078125,25.7711866699219,0.0718260498046875
4.76795020369422,-0.646434448242187,25.4264216308594,0.603338818359375
4.77014083504187,-0.4979939453125,25.8334359130859,1.19231242675781
4.77233146638953,-0.526724365234375,26.2596038085937,1.54186586914062
4.77452209773719,-0.541089575195312,26.4128327148437,1.81001645507812
4.77671235793684,-0.407014282226562,26.3888906982422,2.15956989746094
4.77890261813649,0.076614453125,26.2500270019531,2.70065947265625
4.78109287833615,0.641646044921875,26.6378876708984,3.96958635253906
4.78328600897851,1.02471831054687,27.8685073242187,5.69341154785156
4.78547913962087,0.588973608398437,29.4391036132812,7.13950935058594
4.78767227026323,0.181959326171875,30.7176072998047,7.93917270507812
4.78993231583615,-1.71424838867187,32.02484140625,7.53694682617187
4.79219236140906,-4.44842668457031,32.3217224121094,5.12837995605469
4.79445240698198,-6.7037646484375,31.3017925048828,0.100556469726563
4.79667818302365,-7.59440766601562,29.3864311767578,-5.56891306152344
4.79890395906532,-8.28393774414062,28.2850984130859,-9.02614025878906
4.80112973510698,-8.62870278320312,28.3234056396484,-8.66222160644531
4.80332033710351,-7.55610043945312,28.8549184082031,-4.903325
4.80551093910004,-6.42603725585937,28.9363212646484,-1.01992990722656
4.80770154109657,-5.45399138183594,28.34734765625,0.76614453125
4.80989149232269,-4.32392819824219,26.8820962402344,0.723048901367187
4.81208144354882,-2.85388837890625,24.7033727294922,0.7278373046875
4.81427139477495,-1.28329208984375,22.83110703125,1.12048637695313
4.81646099720551,0.17238251953125,21.2748759521484,1.31202250976562
4.81865059963606,1.51313544921875,19.996372265625,0.5746083984375
4.82084020206662,2.62883342285156,18.9189815185547,-0.579396801757812
4.82309732538476,3.37582434082031,18.2007210205078,-1.55623107910156
4.8253544487029,4.11323845214844,17.4585185058594,-2.54264216308594
4.82761157202104,4.41490786132812,16.7689884277344,-3.29920988769531
4.82983484160655,4.44363828125,15.9932670898437,-4.18985290527344
4.83205811119205,4.1754876953125,15.2127573486328,-4.74530769042969
4.83428138077756,4.10845004882813,14.2885955078125,-5.16189877929687
4.8364671814503,3.90254870605469,13.4314713134766,-5.38216533203125
4.83865298212304,3.60566770019531,12.9286889648437,-5.55933625488281
4.84083878279579,3.11246215820312,12.5216746826172,-5.76523759765625
4.84302076348155,2.8730419921875,12.2870429199219,-5.74129558105469
4.84520274416732,2.60489140625,12.1386024169922,-5.50187541503906
4.84738472485308,2.05422502441406,12.0236807373047,-5.35343491210937
4.84956663962088,1.81959326171875,11.7842605712891,-5.0182466796875
4.85174855438867,1.54665427246094,11.8225677978516,-4.64475122070312
4.85393046915647,1.31681091308594,11.4873795654297,-4.01268198242188
4.85608099433008,1.04866032714844,10.8361567138672,-3.22738383789062
4.85823151950369,0.794874951171875,10.1274730224609,-2.42772048339844
4.8603820446773,0.383072265625,9.39005891113281,-1.50355864257812
4.862570387722,-0.0383072265625,8.56166513671875,-0.627280834960937
4.86475873076671,-0.105344873046875,7.73327136230469,-0.143652099609375
4.86694707381141,-0.47884033203125,7.10599052734375,0.359130249023437
4.86913571411089,-0.560243188476563,6.64630380859375,0.756567724609375
4.87132435441037,-0.74699091796875,6.17225187988281,0.8044517578125
4.87351299470985,-0.603338818359375,5.65031591796875,0.986411083984375
4.87570090394379,-0.45968671875,5.28160886230469,1.05823713378906
4.87788881317773,-0.335188232421875,4.92247861328125,1.12048637695313
4.88007672241167,-0.24899697265625,4.54419475097656,1.33596452636719
4.88226245911957,-0.047884033203125,4.22816013183594,1.43173259277344
4.88444819582747,0.13407529296875,3.85466467285156,1.4173673828125
4.88663393253537,0.167594116210937,3.56736047363281,1.29286889648437
4.88878558748329,0.225054956054687,3.39018955078125,1.16837041015625
4.8909372424312,0.229843359375,3.38061274414062,0.952892260742187
4.89308889737912,0.158017309570312,3.294421484375,0.723048901367187
4.89527551147417,0.15322890625,3.28005627441406,0.512359155273437
4.89746212556922,-0.0047884033203125,3.294421484375,0.253785375976562
4.89964873966427,-0.028730419921875,3.2561142578125,0.220266552734375
4.90190983580142,-0.181959326171875,3.23696064453125,0.1149216796875
4.90417093193858,-0.311246215820312,3.35188232421875,0.100556469726563
4.90643202807573,-0.526724365234375,3.53863005371094,0.119710083007812
4.90869370445377,-0.751779321289062,3.61524450683594,0.253785375976562
4.9109553808318,-1.01035310058594,3.79720383300781,0.44053310546875
4.91321705720984,-1.21146604003906,4.00789357910156,0.770932934570312
4.91547881247243,-1.4939818359375,4.24252534179687,1.02471831054687
4.91774056773502,-1.69988317871094,4.47715710449219,1.29286889648437
4.9200023229976,-1.94409174804687,4.72615407714844,1.48919343261719
4.92222991799543,-2.13562788085937,4.9416322265625,1.68072956542969
4.92445751299326,-2.30801040039062,5.12359155273437,1.86268889160156
4.92668510799109,-2.43250888671875,5.33428129882812,2.09253225097656
4.92888206268944,-2.4899697265625,5.49708701171875,2.35110603027344
4.93107901738779,-2.57616098632812,5.71735356445312,2.43729729003906
4.93327597208614,-2.66714064941406,5.899312890625,2.5665841796875
4.93547498532399,-2.66714064941406,6.15788666992187,2.6431986328125
4.93767399856183,-2.70544787597656,6.33026918945312,2.76290871582031
4.93987301179968,-2.681505859375,6.52659372558594,2.69587106933594
4.94207374785654,-2.49954653320312,6.78995590820312,2.72938989257813
4.9442744839134,-2.4133552734375,7.00543405761719,2.74854350585938
4.94647521997025,-2.2601263671875,7.17781657714844,2.68629426269531
4.95092926396982,-0.316034619140625,8.56645354003906,1.36948334960938
4.95538330796938,-0.0047884033203125,8.81545051269531,0.995987890625
4.95983735196895,0.181959326171875,9.17936916503906,0.579396801757812
4.96202527840124,0.383072265625,9.60074865722656,0.167594116210937
4.96421320483353,0.579396801757812,10.0604353759766,-0.143652099609375
4.96640113126582,0.76614453125,10.5201220947266,-0.392649072265625
4.9685882333166,0.928950244140625,11.0181160400391,-0.502782348632812
4.97077533536739,1.07739074707031,11.5879360351562,-0.675164868164063
4.97296243741817,1.19231242675781,12.1529676269531,-0.799663354492188
4.97514931399152,1.27850368652344,12.6318079589844,-0.852335791015625
4.97733619056487,1.41257897949219,13.1345903076172,-1.09654436035156
4.97952306713822,1.49877023925781,13.5559697998047,-1.35990654296875
4.98170988495506,1.47482822265625,13.9103116455078,-1.48440502929687
4.9838967027719,1.51792385253906,14.3412679443359,-1.67115275878906
4.98608352058875,1.58017309570312,14.6285721435547,-1.80522805175781
4.98830436075802,1.55623107910156,14.8584155029297,-2.02549460449219
4.99052520092729,1.44130939941406,14.9829139892578,-2.19308872070312
4.99274604109656,1.32638771972656,15.1074124755859,-2.39899006347656
4.99489619946244,1.22583125,15.0978356689453,-2.51870014648437
4.99704635782833,1.10612116699219,15.0882588623047,-2.64798703613281
4.99919651619421,0.933738647460937,15.0260096191406,-2.58094938964844
5.00130834144378,0.818816967773437,14.7961662597656,-2.56179577636719
5.00342016669334,0.622492431640625,14.4897084472656,-2.46602770996094
5.00553199194291,0.507570751953125,14.0108681152344,-2.32716401367187
5.00771720369421,0.32561142578125,13.5032973632812,-2.16435830078125
5.00990241544551,0.158017309570312,12.9430541748047,-1.93451494140625
5.01208762719681,-0.0239420166015625,12.3780225830078,-1.78607443847656
5.01427365209916,-0.205901342773437,11.8608750244141,-1.56101948242187
5.0164596770015,-0.3064578125,11.3820346923828,-1.37427175292969
5.01864570190384,-0.474051928710937,10.9845972167969,-1.22104284667969
5.02090480775237,-0.617704028320312,10.6541973876953,-1.10133276367187
5.02316391360089,-0.689530078125,10.3381627685547,-0.952892260742187
5.02542301944942,-0.737414111328125,9.98860932617187,-0.842758984375
5.02768492499412,-0.756567724609375,9.62469067382813,-0.93852705078125
5.02994683053883,-0.761356127929687,9.29907924804687,-0.9576806640625
5.03220873608353,-0.718260498046875,8.98304462890625,-0.914585034179687
5.03446963072329,-0.608127221679687,8.64306799316406,-0.914585034179687
5.03673052536305,-0.536301171875,8.40364782714844,-1.0342951171875
5.03899142000281,-0.430956298828125,8.25041892089844,-1.12048637695313
5.04124522562618,-0.339976635742188,8.17859287109375,-1.16358200683594
5.04349903124955,-0.28730419921875,8.21690009765625,-1.06781394042969
5.04575283687292,-0.253785375976562,8.23126530761719,-0.948103857421875
5.04797871568423,-0.32561142578125,8.29351455078125,-0.905008227539062
5.05020459449554,-0.320823022460937,8.37970581054688,-0.890643017578125
5.05243047330685,-0.359130249023437,8.59518395996094,-0.737414111328125
5.05463573079382,-0.368707055664062,8.92079538574219,-0.723048901367187
5.0568409882808,-0.445321508789062,9.16500395507812,-0.9193734375
5.05904624576778,-0.502782348632812,9.41878933105469,-1.07260234375
5.0612506601558,-0.541089575195312,9.72524714355469,-1.27371528320312
5.06345507454382,-0.588973608398437,10.036493359375,-1.50834704589844
5.06565948893184,-0.617704028320312,10.2615483154297,-1.82917006835937
5.07122941354664,-0.636857641601562,10.7691190673828,-2.02549460449219
5.07679933816144,-0.588973608398437,10.6637741943359,-2.08295544433594
5.08236926277624,-0.579396801757812,10.5680061279297,-2.16435830078125
5.08455534697763,-0.521935961914062,10.4578728515625,-2.2601263671875
5.08674143117902,-0.493205541992187,10.3190091552734,-2.34631762695312
5.08892751538041,-0.426167895507812,10.1562034423828,-2.35110603027344
5.09111209345116,-0.320823022460937,9.96466730957031,-2.20745393066406
5.0932966715219,-0.234631762695312,9.79707319335937,-1.97761057128906
5.09548124959265,-0.167594116210937,9.65342109375,-1.71903679199219
5.09766541609656,-0.13407529296875,9.54328781738281,-1.4939818359375
5.09984958260046,-0.1149216796875,9.4618849609375,-1.22583125
5.10203374910437,-0.0383072265625,9.39005891113281,-1.00556469726562
5.10421984133527,-0.01915361328125,9.34696328125,-0.914585034179687
5.10640593356617,-0.05746083984375,9.35175168457031,-0.809240161132812
5.10859202579708,-0.0718260498046875,9.31823286132813,-0.74699091796875
5.11081476722503,-0.129286889648437,9.27992563476562,-0.627280834960937
5.11303750865298,-0.110133276367187,9.18894597167969,-0.5746083984375
5.11526025008093,-0.119710083007812,9.16021555175781,-0.40222587890625
5.11744899845333,-0.0909796630859375,9.11233151855469,-0.36391865234375
5.11963774682572,-0.100556469726563,9.10754311523437,-0.454898315429687
5.12182649519812,-0.0909796630859375,9.17936916503906,-0.541089575195312
5.12401393481401,-0.13407529296875,9.19852277832031,-0.579396801757812
5.12620137442989,-0.21068974609375,9.11233151855469,-0.502782348632812
5.12838881404578,-0.330399829101562,9.13148513183594,-0.569819995117188
5.13057616181053,-0.392649072265625,9.15063874511719,-0.488417138671875
5.13276350957529,-0.416591088867187,9.10754311523437,-0.474051928710937
5.13495085734005,-0.435744702148437,9.20809958496094,-0.488417138671875
5.1372071354976,-0.464475122070312,9.26077202148437,-0.545877978515625
5.13946341365515,-0.488417138671875,9.38048210449219,-0.679953271484375
5.1417196918127,-0.493205541992187,9.49540378417969,-0.718260498046875
5.14394265931487,-0.526724365234375,9.58159504394531,-0.809240161132812
5.14616562681704,-0.536301171875,9.69651672363281,-0.895431420898437
5.14838859431921,-0.507570751953125,9.76355437011719,-0.986411083984375
5.15057532115298,-0.51714755859375,9.87368764648437,-1.04866032714844
5.15276204798675,-0.550666381835937,10.0748005859375,-1.05344873046875
5.15494877482052,-0.565031591796875,10.1801454589844,-1.04387192382812
5.15713267716427,-0.550666381835937,10.2280294921875,-1.04866032714844
5.15931657950802,-0.560243188476563,10.3668931884766,-1.149216796875
5.16150048185177,-0.550666381835937,10.5057568847656,-1.17794721679687
5.16361188294769,-0.55545478515625,10.6589857910156,-1.17794721679687
5.16572328404361,-0.598550415039062,10.6925046142578,-1.12527478027344
5.16783468513953,-0.584185205078125,10.7451770507812,-1.16358200683594
5.16987395461653,-0.627280834960937,10.7978494873047,-1.04866032714844
5.17191322409353,-0.617704028320312,10.7739074707031,-1.02950671386719
5.17395249357052,-0.588973608398437,10.7834842773437,-0.995987890625
5.17613904039127,-0.627280834960937,10.7212350341797,-0.866701000976562
5.17832558721201,-0.617704028320312,10.6589857910156,-0.895431420898437
5.18051213403276,-0.579396801757812,10.5680061279297,-0.890643017578125
5.1827037167693,-0.627280834960937,10.4770264648437,-0.962469067382812
5.18489529950585,-0.5746083984375,10.3812583984375,-0.952892260742187
5.18708688224239,-0.507570751953125,10.26633671875,-0.90021982421875
5.18927957071895,-0.502782348632812,10.1657802490234,-0.837970581054687
5.19147225919551,-0.493205541992187,10.1083194091797,-0.852335791015625
5.19366494767208,-0.430956298828125,10.0029745361328,-0.799663354492188
5.19585762833614,-0.368707055664062,9.96466730957031,-0.799663354492188
5.1980503090002,-0.311246215820312,9.85932243652344,-0.770932934570312
5.20024298966426,-0.311246215820312,9.78270798339844,-0.8044517578125
5.20243549373327,-0.24899697265625,9.73961235351562,-0.857124194335937
5.20462799780228,-0.239420166015625,9.60553706054687,-0.86191259765625
5.2068205018713,-0.17238251953125,9.5384994140625,-0.852335791015625
5.2090079882808,-0.13407529296875,9.51455739746094,-0.852335791015625
5.21119547469031,-0.076614453125,9.46667336425781,-0.818816967773437
5.21338296109981,-0.105344873046875,9.39963571777344,-0.814028564453125
5.21554962177147,-0.0718260498046875,9.39005891113281,-0.876277807617187
5.21771628244313,-0.047884033203125,9.32780966796875,-0.914585034179687
5.21988294311479,-0.0239420166015625,9.3086560546875,-1.04387192382812
5.22532738872569,0.292092602539062,9.41400092773437,-0.660799658203125
5.23077183433658,0.292092602539062,9.43794294433594,-0.560243188476563
5.23621627994748,0.258573779296875,9.48582697753906,-0.541089575195312
5.23836766954166,0.292092602539062,9.57201823730469,-0.550666381835937
5.24051905913585,0.28730419921875,9.56244143066406,-0.483628735351562
5.24267044873003,0.28730419921875,9.60074865722656,-0.502782348632812
5.24478460015147,0.234631762695312,9.62947907714844,-0.512359155273437
5.24689875157291,0.205901342773437,9.67736311035156,-0.526724365234375
5.24901290299435,0.143652099609375,9.67257470703125,-0.5746083984375
5.25112951953081,0.15322890625,9.69651672363281,-0.665588061523437
5.25324613606726,0.0622492431640625,9.68215151367187,-0.718260498046875
5.25536275260372,0.009576806640625,9.71567033691406,-0.703895288085937
5.25748172216752,-0.0335188232421875,9.71088193359375,-0.646434448242187
5.25960069173132,-0.0239420166015625,9.70609353027344,-0.627280834960937
5.26171966129512,-0.0718260498046875,9.74918916015625,-0.59376201171875
5.26397714246917,-0.158017309570312,9.72045874023437,-0.536301171875
5.26623462364322,-0.253785375976562,9.75876596679687,-0.512359155273437
5.26849210481726,-0.316034619140625,9.78270798339844,-0.569819995117188
5.27071357226518,-0.378283862304687,9.75876596679687,-0.59376201171875
5.2729350397131,-0.430956298828125,9.75876596679687,-0.617704028320312
5.27515650716101,-0.502782348632812,9.77791958007812,-0.641646044921875
5.27733908072872,-0.521935961914062,9.79228479003906,-0.550666381835937
5.27952165429643,-0.545877978515625,9.75876596679687,-0.603338818359375
5.28170422786414,-0.5746083984375,9.80665,-0.550666381835937
5.28388473136349,-0.603338818359375,9.82101520996094,-0.545877978515625
5.28606523486283,-0.627280834960937,9.883264453125,-0.560243188476563
5.28824573836218,-0.622492431640625,9.88805285644531,-0.474051928710937
5.29042589124847,-0.689530078125,9.93593688964844,-0.45968671875
5.29260604413475,-0.67037646484375,9.90720646972656,-0.488417138671875
5.29478619702104,-0.67037646484375,9.90720646972656,-0.483628735351562
5.29696621861392,-0.703895288085937,9.95030209960937,-0.493205541992187
5.2991462402068,-0.723048901367187,9.94551369628906,-0.359130249023437
5.30132626179968,-0.675164868164063,9.95030209960937,-0.354341845703125
5.30815692976842,-0.24899697265625,9.94551369628906,-0.545877978515625
5.31498759773717,-0.201112939453125,9.90720646972656,-0.622492431640625
5.32181826570592,-0.177170922851562,9.87847604980469,-0.665588061523437
5.32401493638734,-0.143652099609375,9.89284125976562,-0.7278373046875
5.32621160706876,-0.0814028564453125,9.79228479003906,-0.770932934570312
5.32840827775019,-0.0526724365234375,9.83538041992187,-0.90021982421875
5.33060551809307,0.0239420166015625,9.83059201660156,-0.8810662109375
5.33280275843595,0.0430956298828125,9.75876596679687,-0.948103857421875
5.33499999877883,0.067037646484375,9.71567033691406,-0.890643017578125
5.33719720363994,0.09576806640625,9.730035546875,-0.842758984375
5.33939440850105,0.105344873046875,9.73482395019531,-0.732625708007812
5.34159161336217,0.15322890625,9.73482395019531,-0.67037646484375
5.34378877156529,0.138863696289063,9.70609353027344,-0.526724365234375
5.34598592976842,0.076614453125,9.64863269042969,-0.45968671875
5.34818308797155,0.0383072265625,9.67257470703125,-0.311246215820312
5.3503801684837,0.0,9.62947907714844,-0.21068974609375
5.35257724899585,0.0143652099609375,9.62947907714844,-0.21068974609375
5.354774329508,0.0814028564453125,9.730035546875,-0.205901342773437
5.35697130780661,0.1149216796875,9.730035546875,-0.272938989257812
5.35916828610522,0.143652099609375,9.80186159667969,-0.411802685546875
5.36136526440383,0.09576806640625,9.83538041992187,-0.502782348632812
5.36718174517098,-0.0814028564453125,10.1657802490234,-0.876277807617187
5.37299822593812,-0.119710083007812,10.1945106689453,-0.780509741210937
5.37881470670526,-0.13407529296875,10.2376062988281,-0.723048901367187
5.38116111859762,-0.167594116210937,10.2567599121094,-0.70868369140625
5.38350753048999,-0.181959326171875,10.3237975585937,-0.622492431640625
5.38585394238235,-0.234631762695312,10.3812583984375,-0.617704028320312
5.38819974978252,-0.244208569335937,10.3668931884766,-0.723048901367187
5.39054555718269,-0.263362182617187,10.419565625,-0.761356127929687
5.39289136458287,-0.2681505859375,10.4482960449219,-0.790086547851562
5.3952363401688,-0.296881005859375,10.3860468017578,-0.814028564453125
5.39758131575474,-0.258573779296875,10.3908352050781,-0.770932934570312
5.39992629134068,-0.335188232421875,10.4099888183594,-0.641646044921875
5.40211861729554,-0.320823022460937,10.3908352050781,-0.7278373046875
5.4043109432504,-0.28730419921875,10.4147772216797,-0.699106884765625
5.40650326920526,-0.311246215820312,10.3860468017578,-0.718260498046875
5.40869487022523,-0.320823022460937,10.3812583984375,-0.684741674804688
5.41088647124519,-0.368707055664062,10.4099888183594,-0.7278373046875
5.41307807226516,-0.392649072265625,10.419565625,-0.756567724609375
5.41526983767315,-0.411802685546875,10.4387192382812,-0.775721337890625
5.41746160308113,-0.426167895507812,10.3525279785156,-0.675164868164063
5.41965336848912,-0.445321508789062,10.3190091552734,-0.703895288085937
5.43056307288908,-0.3447650390625,9.84016882324219,-0.17238251953125
5.44147277728904,-0.383072265625,9.81622680664062,-0.263362182617187
5.452382481689,-0.378283862304687,9.79707319335937,-0.143652099609375
5.45454752994746,-0.354341845703125,9.76355437011719,-0.177170922851562
5.45671257820593,-0.349553442382812,9.80186159667969,-0.09576806640625
5.45887762646439,-0.339976635742188,9.79707319335937,-0.0335188232421875
5.46103238717945,-0.330399829101562,9.77791958007812,0.0239420166015625
5.46318714789452,-0.339976635742188,9.72045874023437,0.0526724365234375
5.46534190860958,-0.3064578125,9.64863269042969,0.124498486328125
5.46971732212954,-0.359130249023437,9.41400092773437,0.316034619140625
5.47409273564951,-0.397437475585937,9.423577734375,0.349553442382812
5.47846814916947,-0.397437475585937,9.37090529785156,0.330399829101562
5.48066816143075,-0.330399829101562,9.35175168457031,0.383072265625
5.48286817369204,-0.36391865234375,9.39963571777344,0.301669409179687
5.48506818595332,-0.392649072265625,9.32302126464844,0.28730419921875
5.48726887909568,-0.426167895507812,9.3852705078125,0.162805712890625
5.48946957223804,-0.349553442382812,9.39484731445313,0.124498486328125
5.4916702653804,-0.36391865234375,9.3852705078125,0.09576806640625
5.49387082082745,-0.359130249023437,9.423577734375,0.0335188232421875
5.4960713762745,-0.387860668945312,9.42836613769531,-0.148440502929687
5.49827193172155,-0.373495458984375,9.46667336425781,-0.15322890625
5.50047244528492,-0.335188232421875,9.53371101074219,-0.205901342773437
5.50267295884828,-0.316034619140625,9.52892260742187,-0.301669409179687
5.50487347241165,-0.316034619140625,9.59117185058594,-0.244208569335937
5.5072089168561,-0.296881005859375,9.66778630371094,-0.215478149414062
5.50954436130054,-0.277727392578125,9.64384428710937,-0.220266552734375
5.51187980574499,-0.2681505859375,9.68215151367187,-0.201112939453125
5.51414934600106,-0.311246215820312,9.71088193359375,-0.263362182617187
5.51641888625714,-0.272938989257812,9.73482395019531,-0.263362182617187
5.51868842651322,-0.277727392578125,9.76355437011719,-0.196324536132812
5.52087973706009,-0.301669409179687,9.79228479003906,-0.186747729492187
5.52307104760697,-0.339976635742188,9.83059201660156,-0.0526724365234375
5.52526235815384,-0.349553442382812,9.88805285644531,0.009576806640625
5.527453118462,-0.392649072265625,9.94072529296875,0.0383072265625
5.52964387877016,-0.359130249023437,10.0077629394531,0.0143652099609375
5.53183463907832,-0.339976635742188,10.0556469726563,-0.0383072265625
5.53402538625714,-0.383072265625,10.1466266357422,-0.0239420166015625
5.53621613343596,-0.36391865234375,10.1705686523437,-0.0909796630859375
5.53840688061478,-0.354341845703125,10.2615483154297,-0.196324536132812
5.54059763267641,-0.383072265625,10.3046439453125,-0.258573779296875
5.54278838473804,-0.392649072265625,10.3237975585937,-0.272938989257812
5.54497913679967,-0.411802685546875,10.3860468017578,-0.220266552734375
5.54709823781964,-0.435744702148437,10.4052004150391,-0.196324536132812
5.5492173388396,-0.469263525390625,10.4099888183594,-0.201112939453125
5.55133643985956,-0.430956298828125,10.419565625,-0.258573779296875
5.55672610243009,-0.320823022460937,10.4291424316406,-0.45968671875
5.56211576500062,-0.24899697265625,10.4052004150391,-0.512359155273437
5.56750542757114,-0.234631762695312,10.4004120117187,-0.550666381835937
5.56968114778599,-0.263362182617187,10.3333743652344,-0.560243188476563
5.57185686800083,-0.234631762695312,10.3094323486328,-0.598550415039062
5.57403258821568,-0.2681505859375,10.2902787353516,-0.689530078125
5.57620885498,-0.282515795898438,10.3237975585937,-0.751779321289062
5.57838512174432,-0.272938989257812,10.2998555419922,-0.809240161132812
5.58056138850865,-0.263362182617187,10.342951171875,-0.82360537109375
5.58273784130813,-0.301669409179687,10.3381627685547,-0.814028564453125
5.58491429410761,-0.292092602539062,10.3668931884766,-0.737414111328125
5.58709074690708,-0.3064578125,10.3812583984375,-0.7278373046875
