timestamp,accel_x (m/s2),accel_y (m/s2),accel_z (m/s2)
0.00284918115234471,-0.21068974609375,9.93593688964844,-0.454898315429687
0.00569836230468942,-0.143652099609375,9.92636008300781,-0.521935961914062
0.00854754345703412,-0.13407529296875,9.98382092285156,-0.47884033203125
0.0142523802625902,-0.201112939453125,9.96945571289062,-0.507570751953125
0.0199572170681463,-0.196324536132812,9.95509050292969,-0.445321508789062
0.0256620538737025,-0.181959326171875,9.95987890625,-0.521935961914062
0.0313711013997443,-0.148440502929687,9.91199487304687,-0.526724365234375
0.0370801489257862,-0.201112939453125,9.95030209960937,-0.488417138671875
0.0427891964518281,-0.181959326171875,9.92636008300781,-0.545877978515625
0.0485686381836009,-0.162805712890625,9.96466730957031,-0.569819995117188
0.0543480799153736,-0.181959326171875,9.96466730957031,-0.55545478515625
0.0601275216471464,-0.177170922851562,9.97424411621094,-0.598550415039062
0.0659132994249253,-0.17238251953125,9.98860932617187,-0.569819995117188
0.0716990772027041,-0.220266552734375,9.99339772949219,-0.550666381835937
0.077484854980483,-0.21068974609375,9.97424411621094,-0.550666381835937
0.0832756801757952,-0.162805712890625,9.98860932617187,-0.550666381835937
0.0890665053711075,-0.143652099609375,9.97903251953125,-0.526724365234375
0.0948573305664198,-0.15322890625,9.97424411621094,-0.531512768554687
0.100652179850274,-0.181959326171875,9.96945571289062,-0.545877978515625
0.106447029134128,-0.205901342773437,9.95030209960937,-0.47884033203125
0.112241878417983,-0.181959326171875,9.96945571289062,-0.51714755859375
0.118040699924061,-0.167594116210937,9.98382092285156,-0.512359155273437
0.12383952143014,-0.205901342773437,9.98860932617187,-0.531512768554687
0.129638342936218,-0.201112939453125,9.97424411621094,-0.521935961914062
0.135493602050803,-0.220266552734375,9.96466730957031,-0.493205541992187
0.141348861165388,-0.201112939453125,9.98382092285156,-0.469263525390625
0.147204120279973,-0.215478149414062,9.99339772949219,-0.469263525390625
0.153062382758272,-0.201112939453125,9.97424411621094,-0.435744702148437
0.15892064523657,-0.17238251953125,10.0125513427734,-0.493205541992187
0.164778907714869,-0.162805712890625,9.99339772949219,-0.45968671875
0.170639388943168,-0.186747729492187,10.0125513427734,-0.483628735351562
0.176499870171466,-0.201112939453125,10.0077629394531,-0.531512768554687
0.182360351399765,-0.21068974609375,10.0412817626953,-0.493205541992187
0.188223926161051,-0.1915361328125,10.0077629394531,-0.47884033203125
0.194087500922336,-0.21068974609375,10.0317049560547,-0.526724365234375
0.199951075683622,-0.167594116210937,10.0412817626953,-0.512359155273437
0.205819002332928,-0.196324536132812,10.0556469726563,-0.488417138671875
0.211686928982234,-0.162805712890625,10.0795889892578,-0.569819995117188
0.217554855631541,-0.148440502929687,10.0987426025391,-0.474051928710937
0.223489384711402,-0.15322890625,10.1226846191406,-0.493205541992187
0.229423913791263,-0.148440502929687,10.1657802490234,-0.51714755859375
0.235358442871124,-0.143652099609375,10.0891657958984,-0.493205541992187
0.241296553439701,-0.105344873046875,10.1035310058594,-0.469263525390625
0.247234664008277,-0.158017309570312,10.1035310058594,-0.502782348632812
0.253172774576853,-0.100556469726563,10.1274730224609,-0.483628735351562
0.259113356499597,-0.13407529296875,10.1178962158203,-0.565031591796875
0.265053938422341,-0.1149216796875,10.1609918457031,-0.536301171875
0.270994520345084,-0.1149216796875,10.1274730224609,-0.545877978515625
0.276937277832064,-0.13407529296875,10.1562034423828,-0.598550415039062
0.282880035319044,-0.05746083984375,10.1801454589844,-0.5746083984375
0.288822792806023,-0.138863696289063,10.1083194091797,-0.603338818359375
0.294767592936232,-0.105344873046875,10.1705686523437,-0.636857641601562
0.300712393066441,-0.124498486328125,10.1322614257812,-0.603338818359375
0.306657193196649,-0.129286889648437,10.1322614257812,-0.636857641601562
0.312668796712276,-0.1149216796875,10.1514150390625,-0.627280834960937
0.318680400227902,-0.15322890625,10.1178962158203,-0.718260498046875
0.324692003743529,-0.138863696289063,10.1370498291016,-0.713472094726562
0.330710032172348,-0.201112939453125,10.1370498291016,-0.656011254882812
0.336728060601168,-0.138863696289063,10.1466266357422,-0.713472094726562
0.342746089029987,-0.158017309570312,10.1609918457031,-0.699106884765625
0.348768285427558,-0.205901342773437,10.1370498291016,-0.742202514648437
0.354790481825129,-0.196324536132812,10.1466266357422,-0.74699091796875
0.3608126782227,-0.201112939453125,10.1322614257812,-0.770932934570312
0.366838058214022,-0.181959326171875,10.1226846191406,-0.790086547851562
0.372863438205343,-0.220266552734375,10.1322614257812,-0.809240161132812
0.378888818196664,-0.24899697265625,10.1418382324219,-0.770932934570312
0.384916162923228,-0.2681505859375,10.1322614257812,-0.78529814453125
0.390943507649792,-0.239420166015625,10.1178962158203,-0.837970581054687
0.396970852376356,-0.2681505859375,10.1131078125,-0.799663354492188
0.403060494954481,-0.234631762695312,10.1418382324219,-0.8810662109375
0.409150137532606,-0.24899697265625,10.0843773925781,-0.8044517578125
0.415239780110731,-0.234631762695312,10.1370498291016,-0.8044517578125
0.42133544319667,-0.2681505859375,10.1226846191406,-0.837970581054687
0.427431106282609,-0.201112939453125,10.1083194091797,-0.790086547851562
0.433526769368548,-0.253785375976562,10.1178962158203,-0.814028564453125
0.439626358561258,-0.158017309570312,10.1466266357422,-0.742202514648437
0.445725947753968,-0.201112939453125,10.1131078125,-0.8044517578125
0.451825536946679,-0.205901342773437,10.0987426025391,-0.742202514648437
0.457932196343381,-0.186747729492187,10.1226846191406,-0.737414111328125
0.464038855740083,-0.186747729492187,10.1178962158203,-0.770932934570312
0.470145515136785,-0.201112939453125,10.0652237792969,-0.74699091796875
0.476255609646335,-0.201112939453125,10.0939541992188,-0.718260498046875
0.482365704155884,-0.21068974609375,10.1226846191406,-0.713472094726562
0.488475798665434,-0.196324536132812,10.1274730224609,-0.684741674804688
0.494641899468386,-0.239420166015625,10.0843773925781,-0.684741674804688
0.500808000271339,-0.196324536132812,10.0795889892578,-0.699106884765625
0.506974101074292,-0.162805712890625,10.0700121826172,-0.675164868164063
0.5131435543078,-0.21068974609375,10.0843773925781,-0.641646044921875
0.519313007541309,-0.17238251953125,10.0556469726563,-0.67037646484375
0.525482460774818,-0.186747729492187,10.0029745361328,-0.656011254882812
0.531655980414574,-0.225054956054687,10.0795889892578,-0.627280834960937
0.537829500054331,-0.1915361328125,10.0652237792969,-0.63206923828125
0.544003019694088,-0.201112939453125,10.0269165527344,-0.608127221679687
0.550179470540442,-0.167594116210937,10.0412817626953,-0.565031591796875
0.556355921386796,-0.158017309570312,10.0269165527344,-0.560243188476563
0.56253237223315,-0.148440502929687,9.97903251953125,-0.569819995117188
0.568712058539575,-0.167594116210937,10.0125513427734,-0.55545478515625
0.574891744845999,-0.186747729492187,9.97424411621094,-0.550666381835937
0.581071431152424,-0.186747729492187,9.97424411621094,-0.507570751953125
0.587316854003987,-0.167594116210937,9.97424411621094,-0.521935961914062
0.59356227685555,-0.162805712890625,9.95030209960937,-0.507570751953125
0.599807699707114,-0.205901342773437,9.93593688964844,-0.45968671875
0.606055443196697,-0.196324536132812,9.92636008300781,-0.51714755859375
0.612303186686281,-0.162805712890625,9.87368764648437,-0.454898315429687
0.618550930175864,-0.148440502929687,9.883264453125,-0.435744702148437
0.624800211425864,-0.167594116210937,9.87847604980469,-0.507570751953125
0.631049492675864,-0.148440502929687,9.883264453125,-0.435744702148437
0.637298773925863,-0.196324536132812,9.85453403320312,-0.469263525390625
0.643549513509197,-0.181959326171875,9.84974562988281,-0.359130249023437
0.649800253092531,-0.15322890625,9.81143840332031,-0.454898315429687
0.656050992675866,-0.143652099609375,9.80665,-0.416591088867187
0.662377534993574,-0.15322890625,9.82101520996094,-0.383072265625
0.668704077311283,-0.167594116210937,9.81622680664062,-0.383072265625
0.675030619628991,-0.181959326171875,9.82101520996094,-0.411802685546875
0.681432594346873,-0.177170922851562,9.80665,-0.4213794921875
0.687834569064755,-0.201112939453125,9.77313117675781,-0.3064578125
0.694236543782637,-0.181959326171875,9.77791958007812,-0.387860668945312
0.700642201443228,-0.181959326171875,9.78749638671875,-0.387860668945312
0.707047859103819,-0.162805712890625,9.78749638671875,-0.282515795898438
0.71345351676441,-0.167594116210937,9.75397756347656,-0.354341845703125
0.719861353895486,-0.177170922851562,9.73961235351562,-0.359130249023437
0.726269191026563,-0.196324536132812,9.73482395019531,-0.359130249023437
0.732677028157639,-0.21068974609375,9.730035546875,-0.368707055664062
0.739086603027431,-0.17238251953125,9.73961235351562,-0.258573779296875
0.745496177897223,-0.196324536132812,9.730035546875,-0.3447650390625
0.751905752767016,-0.181959326171875,9.72045874023437,-0.387860668945312
0.758316821017885,-0.148440502929687,9.68215151367187,-0.416591088867187
0.764727889268755,-0.158017309570312,9.70130512695312,-0.383072265625
0.771138957519625,-0.15322890625,9.66778630371094,-0.32561142578125
0.777551546386813,-0.148440502929687,9.6917283203125,-0.296881005859375
0.783964135254,-0.17238251953125,9.68693991699219,-0.378283862304687
0.790376724121188,-0.196324536132812,9.68215151367187,-0.387860668945312
0.796790781629869,-0.21068974609375,9.66299790039063,-0.392649072265625
0.803204839138549,-0.13407529296875,9.67736311035156,-0.359130249023437
0.80961889664723,-0.1915361328125,9.67736311035156,-0.392649072265625
0.825769480414594,-0.158017309570312,9.78270798339844,-0.411802685546875
0.841920064181958,-0.158017309570312,9.80665,-0.292092602539062
0.858070647949322,-0.162805712890625,9.78749638671875,-0.335188232421875
0.864555805284393,-0.186747729492187,9.7683427734375,-0.2681505859375
0.871040962619464,-0.1915361328125,9.79228479003906,-0.330399829101562
0.877526119954535,-0.119710083007812,9.81143840332031,-0.316034619140625
0.884013735405923,-0.167594116210937,9.80186159667969,-0.277727392578125
0.890501350857312,-0.143652099609375,9.80186159667969,-0.349553442382812
0.896988966308701,-0.177170922851562,9.83538041992187,-0.397437475585937
0.903478092610784,-0.138863696289063,9.83538041992187,-0.36391865234375
0.909967218912867,-0.129286889648437,9.83538041992187,-0.3447650390625
0.91645634521495,-0.17238251953125,9.86889924316406,-0.311246215820312
0.922946935601235,-0.167594116210937,9.82580361328125,-0.339976635742188
0.92943752598752,-0.167594116210937,9.8449572265625,-0.339976635742188
0.935928116373805,-0.186747729492187,9.83059201660156,-0.36391865234375
0.942485723144639,-0.167594116210937,9.80665,-0.416591088867187
0.949043329915472,-0.177170922851562,9.82580361328125,-0.383072265625
0.955600936686306,-0.162805712890625,9.85932243652344,-0.397437475585937
0.962162300835612,-0.201112939453125,9.86411083984375,-0.4213794921875
0.968723664984918,-0.1915361328125,9.86411083984375,-0.378283862304687
0.975285029134223,-0.196324536132812,9.87368764648437,-0.387860668945312
0.981852857693251,-0.186747729492187,9.84974562988281,-0.411802685546875
0.98842068625228,-0.229843359375,9.85932243652344,-0.40222587890625
0.994988514811308,-0.186747729492187,9.86411083984375,-0.426167895507812
1.00155926969412,-0.201112939453125,9.86889924316406,-0.435744702148437
1.00813002457693,-0.215478149414062,9.90241806640625,-0.387860668945312
1.01470077945975,-0.186747729492187,9.883264453125,-0.426167895507812
1.02127416845714,-0.229843359375,9.90241806640625,-0.392649072265625
1.02784755745454,-0.205901342773437,9.89762966308594,-0.416591088867187
1.03442094645193,-0.220266552734375,9.91199487304687,-0.392649072265625
1.0410565287002,-0.225054956054687,9.96945571289062,-0.397437475585937
1.04769211094846,-0.181959326171875,9.93593688964844,-0.445321508789062
1.05432769319673,-0.234631762695312,9.94072529296875,-0.397437475585937
1.06096554790593,-0.229843359375,9.93593688964844,-0.407014282226562
1.06760340261513,-0.181959326171875,9.94072529296875,-0.445321508789062
1.07424125732433,-0.225054956054687,9.98860932617187,-0.368707055664062
1.08088115001097,-0.215478149414062,9.95987890625,-0.426167895507812
1.0875210426976,-0.220266552734375,9.97424411621094,-0.450109912109375
1.09416093538423,-0.220266552734375,9.99339772949219,-0.521935961914062
1.10080243766288,-0.186747729492187,9.98860932617187,-0.469263525390625
1.10744393994153,-0.177170922851562,9.99339772949219,-0.47884033203125
1.11408544222018,-0.225054956054687,9.97903251953125,-0.483628735351562
1.12072841574448,-0.244208569335937,9.97903251953125,-0.474051928710937
1.12737138926879,-0.215478149414062,10.0077629394531,-0.493205541992187
1.13401436279309,-0.229843359375,10.0508585693359,-0.435744702148437
1.14072885053181,-0.21068974609375,10.0460701660156,-0.502782348632812
1.14744333827053,-0.234631762695312,10.0652237792969,-0.502782348632812
1.15415782600924,-0.21068974609375,10.0891657958984,-0.507570751953125
1.16087528770629,-0.196324536132812,10.0795889892578,-0.521935961914062
1.16759274940334,-0.215478149414062,10.0748005859375,-0.59376201171875
1.17431021110039,-0.244208569335937,10.1083194091797,-0.550666381835937
1.1810294127063,-0.1915361328125,10.0987426025391,-0.59376201171875
1.1877486143122,-0.205901342773437,10.1370498291016,-0.541089575195312
1.19446781591811,-0.220266552734375,10.1226846191406,-0.588973608398437
1.20118852859172,-0.177170922851562,10.1131078125,-0.608127221679687
1.20790924126533,-0.148440502929687,10.1418382324219,-0.608127221679687
1.21462995393894,-0.201112939453125,10.1657802490234,-0.627280834960937
1.22135211279311,-0.167594116210937,10.1657802490234,-0.612915625
1.22807427164728,-0.162805712890625,10.1705686523437,-0.608127221679687
1.23479643050144,-0.186747729492187,10.2040874755859,-0.627280834960937
1.24158876850058,-0.167594116210937,10.2088758789062,-0.646434448242187
1.24838110649971,-0.177170922851562,10.2040874755859,-0.665588061523437
1.25517344449884,-0.201112939453125,10.1801454589844,-0.636857641601562
1.26212174896933,-0.143652099609375,10.2376062988281,-0.641646044921875
1.26907005343981,-0.181959326171875,10.2376062988281,-0.665588061523437
1.2760183579103,-0.17238251953125,10.1992990722656,-0.617704028320312
1.2829711532662,-0.1915361328125,10.2280294921875,-0.665588061523437
1.2899239486221,-0.21068974609375,10.2184526855469,-0.718260498046875
1.29687674397801,-0.186747729492187,10.2232410888672,-0.723048901367187
1.30383645903877,-0.17238251953125,10.2088758789062,-0.679953271484375
1.31079617409954,-0.196324536132812,10.2807019287109,-0.665588061523437
1.3177558891603,-0.162805712890625,10.2328178955078,-0.665588061523437
1.32471750157349,-0.201112939453125,10.3094323486328,-0.627280834960937
1.33167911398669,-0.181959326171875,10.2807019287109,-0.646434448242187
1.33864072639988,-0.215478149414062,10.2184526855469,-0.636857641601562
1.3456047282445,-0.205901342773437,10.2232410888672,-0.656011254882812
1.35256873008912,-0.21068974609375,10.2471831054687,-0.679953271484375
1.35953273193374,-0.1915361328125,10.2280294921875,-0.641646044921875
1.36649822368722,-0.220266552734375,10.2328178955078,-0.6512228515625
1.37346371544069,-0.201112939453125,10.2280294921875,-0.6512228515625
1.38042920719417,-0.1915361328125,10.2184526855469,-0.679953271484375
1.38739618028444,-0.15322890625,10.2376062988281,-0.679953271484375
1.39436315337472,-0.167594116210937,10.1992990722656,-0.660799658203125
1.401330126465,-0.21068974609375,10.189722265625,-0.679953271484375
1.43284564629465,-0.234631762695312,10.0125513427734,-0.598550415039062
1.4643611661243,-0.196324536132812,10.0173397460938,-0.612915625
1.49587668595396,-0.220266552734375,10.0269165527344,-0.488417138671875
1.50290577764232,-0.225054956054687,9.97424411621094,-0.502782348632812
1.50993486933069,-0.186747729492187,9.99339772949219,-0.502782348632812
1.51696396101906,-0.21068974609375,9.99339772949219,-0.536301171875
1.52399490003816,-0.1915361328125,9.97424411621094,-0.445321508789062
1.53102583905726,-0.21068974609375,9.91678327636719,-0.4213794921875
1.53805677807636,-0.239420166015625,9.97903251953125,-0.493205541992187
1.54508923087584,-0.220266552734375,9.95987890625,-0.45968671875
1.55212168367532,-0.215478149414062,9.92636008300781,-0.40222587890625
1.5591541364748,-0.205901342773437,9.93114848632812,-0.474051928710937
1.56618839992966,-0.181959326171875,9.95509050292969,-0.445321508789062
1.57322266338452,-0.181959326171875,9.92636008300781,-0.44053310546875
1.58025692683939,-0.186747729492187,9.94551369628906,-0.387860668945312
1.58736152514668,-0.186747729492187,9.88805285644531,-0.392649072265625
1.59446612345397,-0.162805712890625,9.88805285644531,-0.354341845703125
1.60157072176127,-0.196324536132812,9.90720646972656,-0.373495458984375
1.60867776223436,-0.177170922851562,9.86889924316406,-0.368707055664062
1.61578480270745,-0.205901342773437,9.88805285644531,-0.397437475585937
1.62289184318054,-0.181959326171875,9.89762966308594,-0.40222587890625
1.63000063397915,-0.148440502929687,9.91199487304687,-0.383072265625
1.63710942477777,-0.17238251953125,9.86411083984375,-0.349553442382812
1.64421821557638,-0.167594116210937,9.85453403320312,-0.277727392578125
1.65132858905728,-0.143652099609375,9.83059201660156,-0.387860668945312
1.65843896253818,-0.17238251953125,9.82580361328125,-0.320823022460937
1.66554933601909,-0.196324536132812,9.82580361328125,-0.354341845703125
1.67266117434374,-0.138863696289063,9.8449572265625,-0.335188232421875
1.6797730126684,-0.138863696289063,9.81622680664062,-0.335188232421875
1.68688485099305,-0.119710083007812,9.80665,-0.316034619140625
1.69406816924392,-0.143652099609375,9.78749638671875,-0.311246215820312
1.70125148749479,-0.148440502929687,9.80665,-0.3064578125
1.70843480574566,-0.143652099609375,9.79707319335937,-0.368707055664062
1.71562040578906,-0.13407529296875,9.77313117675781,-0.32561142578125
1.72280600583247,-0.119710083007812,9.79228479003906,-0.339976635742188
1.72999160587587,-0.124498486328125,9.79228479003906,-0.378283862304687
1.73717879337587,-0.1149216796875,9.75876596679687,-0.311246215820312
1.74436598087587,-0.148440502929687,9.73482395019531,-0.368707055664062
1.75155316837587,-0.0814028564453125,9.75876596679687,-0.292092602539062
1.75874199986459,-0.1149216796875,9.75397756347656,-0.378283862304687
1.76593083135331,-0.119710083007812,9.78749638671875,-0.339976635742188
1.77311966284202,-0.105344873046875,9.82101520996094,-0.277727392578125
1.78030992098005,-0.110133276367187,9.77791958007812,-0.311246215820312
1.78750017911807,-0.086191259765625,9.77313117675781,-0.277727392578125
1.79469043725609,-0.0909796630859375,9.83538041992187,-0.339976635742188
1.80195295266408,-0.100556469726563,9.83538041992187,-0.320823022460937
1.80921546807206,-0.105344873046875,9.78270798339844,-0.330399829101562
1.81647798348005,-0.129286889648437,9.79228479003906,-0.32561142578125
1.82374464558943,-0.0622492431640625,9.81143840332031,-0.397437475585937
1.8310113076988,-0.09576806640625,9.80665,-0.292092602539062
1.83827796980818,-0.138863696289063,9.77313117675781,-0.359130249023437
1.84554667987762,-0.119710083007812,9.80665,-0.292092602539062
1.85281538994707,-0.124498486328125,9.82101520996094,-0.330399829101562
1.86008410001651,-0.119710083007812,9.83059201660156,-0.3064578125
1.86735436564151,-0.13407529296875,9.80186159667969,-0.32561142578125
1.87462463126651,-0.158017309570312,9.82101520996094,-0.339976635742188
1.88189489689151,-0.138863696289063,9.86411083984375,-0.277727392578125
1.88916667998613,-0.13407529296875,9.83059201660156,-0.292092602539062
1.89643846308075,-0.143652099609375,9.86411083984375,-0.373495458984375
1.90371024617537,-0.167594116210937,9.85932243652344,-0.316034619140625
1.91105090459551,-0.129286889648437,9.82580361328125,-0.277727392578125
1.91839156301565,-0.100556469726563,9.87368764648437,-0.373495458984375
1.92573222143579,-0.138863696289063,9.83538041992187,-0.320823022460937
1.93307909643579,-0.158017309570312,9.883264453125,-0.320823022460937
1.94042597143579,-0.17238251953125,9.84974562988281,-0.330399829101562
1.94777284643579,-0.143652099609375,9.83538041992187,-0.296881005859375
1.95512393888371,-0.162805712890625,9.83538041992187,-0.339976635742188
1.96247503133163,-0.124498486328125,9.87368764648437,-0.301669409179687
1.96982612377954,-0.158017309570312,9.86411083984375,-0.330399829101562
1.97718011466496,-0.148440502929687,9.90720646972656,-0.272938989257812
1.98453410555038,-0.21068974609375,9.90241806640625,-0.3447650390625
1.9918880964358,-0.177170922851562,9.8449572265625,-0.373495458984375
1.99930422686115,-0.167594116210937,9.84974562988281,-0.359130249023437
2.00672035728649,-0.143652099609375,9.87368764648437,-0.397437475585937
2.01413648771184,-0.177170922851562,9.87368764648437,-0.320823022460937
2.02155579728216,-0.181959326171875,9.84016882324219,-0.330399829101562
2.02897510685247,-0.158017309570312,9.87847604980469,-0.397437475585937
2.03639441642278,-0.167594116210937,9.85932243652344,-0.40222587890625
2.04381550377088,-0.162805712890625,9.87368764648437,-0.430956298828125
2.05123659111897,-0.205901342773437,9.91199487304687,-0.387860668945312
2.05865767846706,-0.201112939453125,9.86889924316406,-0.411802685546875
2.06608034545925,-0.220266552734375,9.86889924316406,-0.378283862304687
2.07350301245144,-0.186747729492187,9.84974562988281,-0.392649072265625
2.08092567944363,-0.186747729492187,9.8449572265625,-0.407014282226562
2.08835007527696,-0.239420166015625,9.883264453125,-0.383072265625
2.0957744711103,-0.201112939453125,9.90241806640625,-0.4213794921875
2.10319886694363,-0.1915361328125,9.90241806640625,-0.397437475585937
2.11062474107558,-0.220266552734375,9.91678327636719,-0.407014282226562
2.11805061520752,-0.225054956054687,9.93114848632812,-0.407014282226562
2.12547648933947,-0.162805712890625,9.95509050292969,-0.445321508789062
2.13297171199572,-0.186747729492187,9.93114848632812,-0.416591088867187
2.14046693465197,-0.215478149414062,9.94072529296875,-0.387860668945312
2.14796215730822,-0.220266552734375,9.93593688964844,-0.378283862304687
2.15546013810249,-0.234631762695312,9.93593688964844,-0.435744702148437
2.16295811889676,-0.220266552734375,9.94551369628906,-0.40222587890625
2.17045609969103,-0.177170922851562,9.95987890625,-0.430956298828125
2.17795641718235,-0.229843359375,9.97424411621094,-0.47884033203125
2.18545673467368,-0.1915361328125,9.96945571289062,-0.426167895507812
2.192957052165,-0.1915361328125,9.97903251953125,-0.454898315429687
2.20045938452177,-0.148440502929687,10.0029745361328,-0.469263525390625
2.20796171687854,-0.205901342773437,9.98382092285156,-0.47884033203125
2.21546404923531,-0.181959326171875,9.97424411621094,-0.502782348632812
2.22296787334556,-0.181959326171875,10.0460701660156,-0.464475122070312
2.2304716974558,-0.205901342773437,10.0173397460938,-0.445321508789062
2.23797552156605,-0.1915361328125,10.0173397460938,-0.4979939453125
2.24554797414851,-0.220266552734375,10.0317049560547,-0.536301171875
2.25312042673098,-0.17238251953125,10.0269165527344,-0.521935961914062
2.26069287931344,-0.177170922851562,10.0508585693359,-0.51714755859375
2.26826798087594,-0.215478149414062,10.0556469726563,-0.569819995117188
2.27584308243845,-0.196324536132812,10.0891657958984,-0.454898315429687
2.28341818400095,-0.177170922851562,10.0556469726563,-0.51714755859375
2.290994809869,-0.186747729492187,10.0795889892578,-0.488417138671875
2.29857143573706,-0.205901342773437,10.0939541992188,-0.474051928710937
2.30614806160512,-0.1915361328125,10.1131078125,-0.512359155273437
2.31387764591501,-0.177170922851562,10.1131078125,-0.502782348632812
2.32160723022491,-0.1915361328125,10.1370498291016,-0.521935961914062
2.32933681453481,-0.148440502929687,10.1562034423828,-0.541089575195312
2.3370718410105,-0.186747729492187,10.1322614257812,-0.550666381835937
2.3448068674862,-0.205901342773437,10.1322614257812,-0.617704028320312
2.3525418939619,-0.21068974609375,10.1274730224609,-0.5746083984375
2.36028234990808,-0.17238251953125,10.1226846191406,-0.598550415039062
2.36802280585426,-0.205901342773437,10.1226846191406,-0.608127221679687
2.37576326180044,-0.17238251953125,10.1609918457031,-0.617704028320312
2.38350590535513,-0.205901342773437,10.1322614257812,-0.603338818359375
2.39124854890982,-0.158017309570312,10.1609918457031,-0.588973608398437
2.3989911924645,-0.15322890625,10.1370498291016,-0.565031591796875
2.40673650322839,-0.162805712890625,10.1274730224609,-0.684741674804688
2.41448181399228,-0.162805712890625,10.1466266357422,-0.59376201171875
2.42222712475617,-0.167594116210937,10.1418382324219,-0.684741674804688
2.42997394040288,-0.17238251953125,10.1801454589844,-0.656011254882812
2.43772075604958,-0.186747729492187,10.1801454589844,-0.636857641601562
2.44546757169628,-0.205901342773437,10.1801454589844,-0.67037646484375
2.45321584535079,-0.17238251953125,10.1753570556641,-0.63206923828125
2.46096411900531,-0.201112939453125,10.1753570556641,-0.641646044921875
2.46871239265982,-0.1915361328125,10.189722265625,-0.675164868164063
2.49596475816547,-0.201112939453125,10.1083194091797,-0.565031591796875
2.52321712367111,-0.167594116210937,10.1131078125,-0.584185205078125
2.55046948917676,-0.181959326171875,10.1370498291016,-0.493205541992187
2.5582795398495,-0.205901342773437,10.1035310058594,-0.502782348632812
2.56608959052224,-0.220266552734375,10.0748005859375,-0.531512768554687
2.57389964119499,-0.1915361328125,10.0891657958984,-0.51714755859375
2.58171132077398,-0.1915361328125,10.1131078125,-0.536301171875
2.58952300035298,-0.186747729492187,10.0939541992188,-0.502782348632812
2.59733467993197,-0.201112939453125,10.0077629394531,-0.450109912109375
2.59944633786383,-0.162805712890625,10.0317049560547,-0.4213794921875
2.60155799579569,-0.181959326171875,10.0412817626953,-0.454898315429687
2.60366965372754,-0.167594116210937,10.0077629394531,-0.44053310546875
2.6057774451772,-0.186747729492187,10.0125513427734,-0.426167895507812
2.60788523662685,-0.148440502929687,10.0125513427734,-0.435744702148437
2.6099930280765,-0.124498486328125,9.9981861328125,-0.4213794921875
2.61213513989291,-0.162805712890625,9.98382092285156,-0.426167895507812
2.61427725170932,-0.167594116210937,9.95987890625,-0.426167895507812
2.61641936352572,-0.143652099609375,9.91678327636719,-0.378283862304687
2.61852537052442,-0.1149216796875,9.94551369628906,-0.378283862304687
2.62063137752312,-0.15322890625,9.94551369628906,-0.373495458984375
2.62273738452182,-0.148440502929687,9.91678327636719,-0.397437475585937
2.6248392959259,-0.1149216796875,9.94551369628906,-0.40222587890625
2.62694120732998,-0.124498486328125,9.94072529296875,-0.4213794921875
2.62904311873406,-0.138863696289063,9.94072529296875,-0.416591088867187
2.63114201120368,-0.129286889648437,9.91678327636719,-0.435744702148437
2.6332409036733,-0.13407529296875,9.94072529296875,-0.40222587890625
2.63533979614292,-0.129286889648437,9.89284125976562,-0.454898315429687
2.63743613327399,-0.09576806640625,9.94551369628906,-0.411802685546875
2.63953247040507,-0.143652099609375,9.9215716796875,-0.430956298828125
2.64162880753614,-0.143652099609375,9.91678327636719,-0.454898315429687
2.64376529554612,-0.162805712890625,9.93114848632812,-0.387860668945312
2.64590178355611,-0.138863696289063,9.96945571289062,-0.44053310546875
2.64803827156609,-0.13407529296875,9.92636008300781,-0.483628735351562
2.65014720944586,-0.181959326171875,9.95030209960937,-0.502782348632812
2.65225614732564,-0.124498486328125,9.93114848632812,-0.488417138671875
2.65436508520541,-0.119710083007812,9.96945571289062,-0.526724365234375
2.65654870260992,-0.143652099609375,9.96466730957031,-0.407014282226562
2.65873232001444,-0.158017309570312,9.97903251953125,-0.45968671875
2.66091593741896,-0.148440502929687,9.98382092285156,-0.445321508789062
2.66310280297885,-0.138863696289063,9.95030209960937,-0.464475122070312
2.66528966853875,-0.15322890625,9.98860932617187,-0.45968671875
2.66747653409865,-0.110133276367187,9.95509050292969,-0.474051928710937
2.66966171991679,-0.158017309570312,9.94072529296875,-0.411802685546875
2.67184690573493,-0.148440502929687,9.97903251953125,-0.464475122070312
2.67403209155308,-0.17238251953125,9.96945571289062,-0.450109912109375
2.6761833075904,-0.158017309570312,9.94551369628906,-0.368707055664062
2.67833452362773,-0.13407529296875,9.97903251953125,-0.45968671875
2.68048573966506,-0.148440502929687,10.0077629394531,-0.469263525390625
2.6826037067332,-0.124498486328125,10.0029745361328,-0.435744702148437
2.68472167380134,-0.143652099609375,9.95030209960937,-0.435744702148437
2.68683964086949,-0.124498486328125,9.95509050292969,-0.464475122070312
2.68895608238424,-0.124498486328125,9.95030209960937,-0.454898315429687
2.691072523899,-0.124498486328125,9.94072529296875,-0.411802685546875
2.69318896541376,-0.0909796630859375,9.94072529296875,-0.426167895507812
2.6953045566681,-0.100556469726563,9.93593688964844,-0.454898315429687
2.69742014792244,-0.1149216796875,9.95030209960937,-0.45968671875
2.69953573917678,-0.143652099609375,9.94072529296875,-0.44053310546875
2.70278414803095,-0.138863696289063,9.92636008300781,-0.445321508789062
2.70603255688512,-0.138863696289063,9.89762966308594,-0.36391865234375
2.70928096573928,-0.143652099609375,9.89762966308594,-0.4213794921875
2.71139427422453,-0.09576806640625,9.9215716796875,-0.407014282226562
2.71350758270977,-0.129286889648437,9.95509050292969,-0.392649072265625
2.71562089119501,-0.110133276367187,9.84974562988281,-0.464475122070312
2.71773514900751,-0.177170922851562,9.9215716796875,-0.474051928710937
2.71984940682001,-0.158017309570312,9.96466730957031,-0.454898315429687
2.72196366463251,-0.158017309570312,9.91199487304687,-0.4213794921875
2.72407671172453,-0.162805712890625,9.9215716796875,-0.407014282226562
2.72618975881654,-0.1915361328125,9.89284125976562,-0.450109912109375
2.72830280590855,-0.148440502929687,9.94072529296875,-0.450109912109375
2.73041418286167,-0.229843359375,9.95030209960937,-0.464475122070312
2.7325255598148,-0.17238251953125,9.91678327636719,-0.469263525390625
2.73463693676792,-0.158017309570312,9.91678327636719,-0.469263525390625
2.73680798841723,-0.13407529296875,9.883264453125,-0.426167895507812
2.73897904006653,-0.119710083007812,9.93593688964844,-0.45968671875
2.74115009171584,-0.15322890625,9.9215716796875,-0.392649072265625
2.74326132023147,-0.181959326171875,9.9215716796875,-0.45968671875
2.74537254874709,-0.167594116210937,9.90720646972656,-0.483628735351562
2.74748377726272,-0.167594116210937,9.93114848632812,-0.4213794921875
2.74959061547886,-0.158017309570312,9.91678327636719,-0.454898315429687
2.75169745369501,-0.124498486328125,9.93114848632812,-0.44053310546875
2.75380429191115,-0.138863696289063,9.95030209960937,-0.51714755859375
2.75590875881654,-0.148440502929687,9.91678327636719,-0.469263525390625
2.75801322572192,-0.167594116210937,9.90720646972656,-0.507570751953125
2.7601176926273,-0.17238251953125,9.883264453125,-0.469263525390625
2.76221655276185,-0.13407529296875,9.95030209960937,-0.47884033203125
2.76431541289639,-0.17238251953125,9.93593688964844,-0.407014282226562
2.76641427303094,-0.143652099609375,9.94551369628906,-0.488417138671875
2.76858055731913,-0.17238251953125,9.94072529296875,-0.521935961914062
2.77074684160733,-0.15322890625,9.95987890625,-0.445321508789062
2.77291312589552,-0.162805712890625,9.96945571289062,-0.502782348632812
2.77502566788771,-0.205901342773437,9.96945571289062,-0.488417138671875
2.7771382098799,-0.167594116210937,9.94072529296875,-0.512359155273437
2.77925075187209,-0.158017309570312,9.92636008300781,-0.47884033203125
2.7813615645891,-0.158017309570312,10.0029745361328,-0.411802685546875
2.78347237730611,-0.138863696289063,9.95987890625,-0.426167895507812
2.78558319002313,-0.1915361328125,9.9981861328125,-0.44053310546875
2.78769152129483,-0.1915361328125,9.97903251953125,-0.416591088867187
2.78979985256653,-0.162805712890625,9.96466730957031,-0.445321508789062
2.79190818383823,-0.196324536132812,9.97903251953125,-0.387860668945312
2.7940150488556,-0.196324536132812,9.9981861328125,-0.483628735351562
2.79612191387296,-0.167594116210937,9.95987890625,-0.426167895507812
2.79822877889032,-0.196324536132812,9.97903251953125,-0.40222587890625
2.80040425783997,-0.205901342773437,9.9215716796875,-0.450109912109375
2.80257973678963,-0.21068974609375,9.90720646972656,-0.4213794921875
2.80475521573928,-0.215478149414062,9.94551369628906,-0.454898315429687
2.80686779722799,-0.21068974609375,9.90720646972656,-0.407014282226562
2.80898037871671,-0.196324536132812,9.93114848632812,-0.407014282226562
2.81109296020542,-0.177170922851562,9.90241806640625,-0.411802685546875
2.81320585777487,-0.272938989257812,9.91678327636719,-0.454898315429687
2.81531875534431,-0.234631762695312,9.9215716796875,-0.45968671875
2.81743165291376,-0.215478149414062,9.90720646972656,-0.454898315429687
2.81954447658997,-0.234631762695312,9.90720646972656,-0.483628735351562
2.82165730026619,-0.239420166015625,9.90720646972656,-0.526724365234375
2.8237701239424,-0.234631762695312,9.87368764648437,-0.4979939453125
2.82588292982348,-0.253785375976562,9.883264453125,-0.488417138671875
2.82799573570456,-0.215478149414062,9.89284125976562,-0.45968671875
2.83010854158563,-0.205901342773437,9.91199487304687,-0.411802685546875
2.83221651999275,-0.205901342773437,9.91678327636719,-0.464475122070312
2.83432449839987,-0.215478149414062,9.88805285644531,-0.426167895507812
2.83643247680699,-0.234631762695312,9.90720646972656,-0.493205541992187
2.83846912502747,-0.239420166015625,9.93593688964844,-0.464475122070312
2.84050577324796,-0.229843359375,9.90241806640625,-0.502782348632812
2.84254242146845,-0.21068974609375,9.91199487304687,-0.454898315429687
2.84457810788338,-0.24899697265625,9.9215716796875,-0.450109912109375
2.84661379429831,-0.24899697265625,9.89284125976562,-0.464475122070312
2.84864948071324,-0.225054956054687,9.9215716796875,-0.469263525390625
2.85068449297452,-0.21068974609375,9.95030209960937,-0.51714755859375
2.85271950523581,-0.215478149414062,9.94072529296875,-0.4213794921875
2.85475451749709,-0.225054956054687,9.99339772949219,-0.378283862304687
2.85693331686775,-0.225054956054687,9.95030209960937,-0.392649072265625
2.85911211623842,-0.244208569335937,9.96945571289062,-0.474051928710937
2.86129091560908,-0.220266552734375,9.9981861328125,-0.464475122070312
2.86347177726272,-0.229843359375,9.96466730957031,-0.426167895507812
2.86565263891637,-0.215478149414062,9.97903251953125,-0.445321508789062
2.86783350057001,-0.196324536132812,9.99339772949219,-0.339976635742188
2.87001446205005,-0.162805712890625,9.96466730957031,-0.407014282226562
2.87219542353008,-0.196324536132812,10.0125513427734,-0.469263525390625
2.87437638501012,-0.177170922851562,9.9981861328125,-0.464475122070312
2.87655744783564,-0.201112939453125,9.98382092285156,-0.426167895507812
2.87873851066116,-0.220266552734375,9.9981861328125,-0.474051928710937
2.88091957348668,-0.196324536132812,9.9981861328125,-0.435744702148437
2.8830774401859,-0.215478149414062,9.99339772949219,-0.426167895507812
2.88523530688512,-0.21068974609375,9.96945571289062,-0.493205541992187
2.88739317358434,-0.220266552734375,9.98382092285156,-0.411802685546875
2.88951954060908,-0.177170922851562,9.9981861328125,-0.445321508789062
2.89164590763382,-0.201112939453125,9.96466730957031,-0.493205541992187
2.89377227465855,-0.162805712890625,9.96945571289062,-0.488417138671875
2.89589042938946,-0.158017309570312,9.9981861328125,-0.493205541992187
2.89800858412036,-0.1915361328125,10.0029745361328,-0.445321508789062
2.90012673885126,-0.181959326171875,10.0125513427734,-0.507570751953125
2.90659843834128,-0.205901342773437,10.0317049560547,-0.512359155273437
2.91307013783129,-0.205901342773437,10.0508585693359,-0.565031591796875
2.91954183732131,-0.1915361328125,10.0412817626953,-0.565031591796875
2.92168778919848,-0.215478149414062,10.0891657958984,-0.507570751953125
2.92383374107565,-0.215478149414062,10.0891657958984,-0.502782348632812
2.92597969295282,-0.244208569335937,10.0652237792969,-0.541089575195312
2.92809181545717,-0.201112939453125,10.0748005859375,-0.531512768554687
2.93020393796151,-0.220266552734375,10.0317049560547,-0.531512768554687
2.93231606046585,-0.186747729492187,10.0508585693359,-0.560243188476563
2.93442474861689,-0.1915361328125,10.0891657958984,-0.541089575195312
2.93653343676793,-0.186747729492187,10.1035310058594,-0.545877978515625
2.93864212491898,-0.205901342773437,10.0843773925781,-0.526724365234375
2.94074813484736,-0.205901342773437,10.0652237792969,-0.579396801757812
2.94285414477575,-0.181959326171875,10.0652237792969,-0.474051928710937
2.94496015470414,-0.186747729492187,10.0508585693359,-0.51714755859375
2.94713380183955,-0.162805712890625,10.0700121826172,-0.55545478515625
2.94930744897497,-0.201112939453125,10.0700121826172,-0.545877978515625
2.95148109611039,-0.167594116210937,10.0460701660156,-0.55545478515625
2.95362524178096,-0.15322890625,10.0269165527344,-0.5746083984375
2.95576938745154,-0.181959326171875,10.0173397460938,-0.584185205078125
2.95791353312211,-0.201112939453125,10.0508585693359,-0.588973608398437
2.96002718389251,-0.205901342773437,10.0700121826172,-0.531512768554687
2.96214083466291,-0.21068974609375,10.0652237792969,-0.569819995117188
2.96425448543331,-0.181959326171875,10.0412817626953,-0.541089575195312
2.96636748543331,-0.24899697265625,10.0077629394531,-0.541089575195312
2.96848048543331,-0.162805712890625,10.036493359375,-0.550666381835937
2.97059348543331,-0.196324536132812,10.0125513427734,-0.502782348632812
2.9727061243222,-0.17238251953125,10.0221281494141,-0.584185205078125
2.97481876321108,-0.17238251953125,9.99339772949219,-0.55545478515625
2.97693140209997,-0.196324536132812,10.0317049560547,-0.536301171875
2.97911380232784,-0.181959326171875,10.0125513427734,-0.545877978515625
2.9812962025557,-0.201112939453125,10.0269165527344,-0.579396801757812
2.98347860278357,-0.186747729492187,10.0221281494141,-0.565031591796875
2.98562816750796,-0.167594116210937,10.0077629394531,-0.526724365234375
2.98777773223235,-0.177170922851562,10.0269165527344,-0.565031591796875
2.98992729695675,-0.186747729492187,9.9981861328125,-0.488417138671875
2.99204254543765,-0.13407529296875,9.98382092285156,-0.450109912109375
2.99415779391855,-0.138863696289063,9.97424411621094,-0.512359155273437
2.99627304239945,-0.177170922851562,9.9981861328125,-0.454898315429687
2.99845551413339,-0.15322890625,9.97903251953125,-0.464475122070312
3.00063798586733,-0.17238251953125,9.9215716796875,-0.435744702148437
3.00282045760127,-0.158017309570312,9.95509050292969,-0.45968671875
3.00500761916811,-0.129286889648437,10.0029745361328,-0.426167895507812
3.00719478073495,-0.15322890625,9.95030209960937,-0.474051928710937
3.00938194230179,-0.143652099609375,9.97424411621094,-0.454898315429687
3.01157329451533,-0.13407529296875,9.94072529296875,-0.435744702148437
3.01376464672888,-0.143652099609375,9.95030209960937,-0.435744702148437
3.01595599894242,-0.143652099609375,9.94551369628906,-0.454898315429687
3.01811422230396,-0.181959326171875,9.95030209960937,-0.44053310546875
3.02027244566551,-0.177170922851562,9.93593688964844,-0.502782348632812
3.02243066902705,-0.177170922851562,9.97903251953125,-0.469263525390625
3.02447688164641,-0.181959326171875,9.94072529296875,-0.426167895507812
3.02652309426577,-0.177170922851562,9.93114848632812,-0.502782348632812
3.02856930688513,-0.158017309570312,9.91199487304687,-0.450109912109375
3.03053697062211,-0.162805712890625,9.93114848632812,-0.44053310546875
3.03250463435909,-0.181959326171875,9.9215716796875,-0.373495458984375
3.03447229809606,-0.162805712890625,9.90720646972656,-0.426167895507812
3.03649556209346,-0.186747729492187,9.93114848632812,-0.454898315429687
3.03851882609086,-0.21068974609375,9.94551369628906,-0.430956298828125
3.04054209008826,-0.21068974609375,9.93114848632812,-0.435744702148437
3.04256319772715,-0.21068974609375,9.92636008300781,-0.426167895507812
3.04458430536604,-0.177170922851562,9.95030209960937,-0.45968671875
3.04660541300493,-0.201112939453125,9.90720646972656,-0.47884033203125
3.04862597186994,-0.177170922851562,9.94072529296875,-0.4213794921875
3.05064653073496,-0.196324536132812,9.94551369628906,-0.488417138671875
3.05266708959998,-0.15322890625,9.9215716796875,-0.474051928710937
3.05468721335215,-0.17238251953125,9.90241806640625,-0.445321508789062
3.05670733710432,-0.167594116210937,9.91678327636719,-0.407014282226562
3.05872746085649,-0.162805712890625,9.9215716796875,-0.4979939453125
3.06074775100406,-0.181959326171875,9.9215716796875,-0.4213794921875
3.06276804115163,-0.220266552734375,9.94551369628906,-0.483628735351562
3.0647883312992,-0.201112939453125,9.93114848632812,-0.45968671875
3.066805949782,-0.186747729492187,9.93593688964844,-0.474051928710937
3.0688235682648,-0.186747729492187,9.93593688964844,-0.387860668945312
3.0708411867476,-0.186747729492187,9.91678327636719,-0.483628735351562
3.07291345385779,-0.196324536132812,9.93593688964844,-0.454898315429687
3.07498572096798,-0.186747729492187,9.9215716796875,-0.445321508789062
3.07705798807816,-0.21068974609375,9.95987890625,-0.45968671875
3.07911760422807,-0.196324536132812,9.94551369628906,-0.469263525390625
3.08117722037797,-0.205901342773437,9.94551369628906,-0.392649072265625
3.08323683652787,-0.186747729492187,9.98382092285156,-0.464475122070312
3.08528314980776,-0.205901342773437,9.95509050292969,-0.454898315429687
3.08732946308765,-0.177170922851562,9.94072529296875,-0.483628735351562
3.08937577636754,-0.229843359375,9.93114848632812,-0.45968671875
3.09141246343352,-0.215478149414062,9.9215716796875,-0.40222587890625
3.09344915049949,-0.229843359375,9.91678327636719,-0.416591088867187
3.09548583756546,-0.225054956054687,9.96945571289062,-0.383072265625
3.09752157226598,-0.215478149414062,9.95509050292969,-0.4213794921875
3.0995573069665,-0.205901342773437,9.95987890625,-0.450109912109375
3.10159304166702,-0.244208569335937,9.92636008300781,-0.464475122070312
3.10369715744393,-0.21068974609375,9.94072529296875,-0.426167895507812
3.10580127322084,-0.201112939453125,9.99339772949219,-0.445321508789062
3.10790538899775,-0.158017309570312,9.95030209960937,-0.47884033203125
3.11001181770868,-0.205901342773437,9.96466730957031,-0.45968671875
3.11211824641962,-0.162805712890625,9.94551369628906,-0.474051928710937
3.11422467513056,-0.177170922851562,9.90241806640625,-0.464475122070312
3.11633116992222,-0.177170922851562,9.94072529296875,-0.430956298828125
3.11843766471389,-0.186747729492187,9.93114848632812,-0.430956298828125
3.12054415950555,-0.15322890625,9.95509050292969,-0.47884033203125
3.12258183127205,-0.234631762695312,9.89762966308594,-0.488417138671875
3.12461950303854,-0.225054956054687,9.92636008300781,-0.4213794921875
3.12665717480503,-0.205901342773437,9.90241806640625,-0.435744702148437
3.12869393381111,-0.196324536132812,9.91678327636719,-0.44053310546875
3.13073069281718,-0.1915361328125,9.96945571289062,-0.4213794921875
3.13276745182325,-0.234631762695312,9.89284125976562,-0.474051928710937
3.13487318348558,-0.196324536132812,9.98382092285156,-0.474051928710937
3.13697891514791,-0.225054956054687,9.95509050292969,-0.416591088867187
3.13908464681024,-0.220266552734375,9.95509050292969,-0.47884033203125
3.14119238042569,-0.21068974609375,9.94551369628906,-0.450109912109375
3.14330011404114,-0.244208569335937,9.91678327636719,-0.464475122070312
3.14540784765659,-0.263362182617187,9.96466730957031,-0.397437475585937
3.14751721842482,-0.239420166015625,9.96466730957031,-0.483628735351562
3.14962658919305,-0.229843359375,9.97424411621094,-0.445321508789062
3.15173595996128,-0.2681505859375,9.95030209960937,-0.4979939453125
3.15384464637621,-0.201112939453125,9.94072529296875,-0.45968671875
3.15595333279114,-0.258573779296875,9.96945571289062,-0.502782348632812
3.15806201920607,-0.21068974609375,9.96466730957031,-0.435744702148437
3.16017267013923,-0.234631762695312,9.94072529296875,-0.426167895507812
3.16228332107239,-0.253785375976562,9.95987890625,-0.454898315429687
3.16439397200555,-0.24899697265625,9.95987890625,-0.454898315429687
3.16650813248732,-0.229843359375,9.97424411621094,-0.450109912109375
3.16862229296909,-0.196324536132812,9.99339772949219,-0.521935961914062
3.17073645345086,-0.244208569335937,9.97903251953125,-0.526724365234375
3.17285334754808,-0.263362182617187,9.95030209960937,-0.426167895507812
3.1749702416453,-0.229843359375,9.99339772949219,-0.464475122070312
3.17708713574252,-0.220266552734375,9.96466730957031,-0.526724365234375
3.17920541862013,-0.225054956054687,10.0125513427734,-0.550666381835937
3.18132370149773,-0.220266552734375,10.0221281494141,-0.4979939453125
3.18344198437533,-0.229843359375,9.99339772949219,-0.47884033203125
3.1854895307078,-0.215478149414062,10.036493359375,-0.469263525390625
3.18753707704026,-0.220266552734375,10.0221281494141,-0.493205541992187
3.18958462337273,-0.239420166015625,9.99339772949219,-0.426167895507812
3.19162994021301,-0.244208569335937,10.0269165527344,-0.493205541992187
3.19367525705329,-0.215478149414062,10.0077629394531,-0.502782348632812
3.19572057389357,-0.234631762695312,10.0029745361328,-0.474051928710937
3.19885733100077,-0.229843359375,10.0317049560547,-0.493205541992187
3.20199408810798,-0.21068974609375,10.0221281494141,-0.507570751953125
3.20513084521519,-0.186747729492187,10.0029745361328,-0.430956298828125
3.20723219856805,-0.239420166015625,9.99339772949219,-0.4979939453125
3.20933355192092,-0.234631762695312,10.0173397460938,-0.4979939453125
3.21143490527378,-0.220266552734375,10.036493359375,-0.464475122070312
3.21350258110929,-0.215478149414062,10.0269165527344,-0.521935961914062
3.21557025694479,-0.225054956054687,10.0221281494141,-0.507570751953125
3.2176379327803,-0.201112939453125,9.9981861328125,-0.474051928710937
3.21966971652595,-0.1915361328125,10.0269165527344,-0.536301171875
3.22170150027161,-0.215478149414062,10.0173397460938,-0.450109912109375
3.22373328401727,-0.201112939453125,10.0269165527344,-0.502782348632812
3.22576132459887,-0.196324536132812,10.0029745361328,-0.45968671875
3.22778936518047,-0.205901342773437,9.9981861328125,-0.507570751953125
3.22981740576207,-0.196324536132812,10.0269165527344,-0.469263525390625
3.23191318180373,-0.196324536132812,9.9981861328125,-0.531512768554687
3.2340089578454,-0.181959326171875,9.99339772949219,-0.536301171875
3.23610473388706,-0.215478149414062,10.0221281494141,-0.469263525390625
3.23817055485061,-0.201112939453125,10.0029745361328,-0.493205541992187
3.24023637581415,-0.167594116210937,9.98382092285156,-0.464475122070312
3.24230219677769,-0.201112939453125,10.0269165527344,-0.464475122070312
3.24433701302118,-0.24899697265625,10.0221281494141,-0.474051928710937
3.24637182926467,-0.225054956054687,9.9981861328125,-0.474051928710937
3.24840664550815,-0.196324536132812,10.0125513427734,-0.445321508789062
3.25044052202725,-0.196324536132812,10.0029745361328,-0.47884033203125
3.25247439854635,-0.196324536132812,10.0173397460938,-0.435744702148437
3.25450827506544,-0.181959326171875,10.036493359375,-0.397437475585937
3.25654199967481,-0.177170922851562,9.98860932617187,-0.483628735351562
3.25857572428419,-0.186747729492187,9.9981861328125,-0.469263525390625
3.26060944889356,-0.167594116210937,10.0460701660156,-0.411802685546875
3.26271257611795,-0.239420166015625,10.0125513427734,-0.426167895507812
3.26481570334235,-0.186747729492187,10.036493359375,-0.47884033203125
3.26691883056674,-0.201112939453125,10.0604353759766,-0.44053310546875
3.26902487028028,-0.201112939453125,10.0077629394531,-0.435744702148437
3.27113090999382,-0.196324536132812,10.0508585693359,-0.392649072265625
3.27323694970736,-0.167594116210937,10.0125513427734,-0.445321508789062
3.27530934033236,-0.181959326171875,10.0077629394531,-0.464475122070312
3.27738173095736,-0.148440502929687,10.0029745361328,-0.454898315429687
3.27945412158236,-0.177170922851562,10.0173397460938,-0.483628735351562
3.28149196592915,-0.21068974609375,10.0317049560547,-0.445321508789062
3.28352981027594,-0.167594116210937,10.0269165527344,-0.474051928710937
3.28556765462273,-0.177170922851562,10.0173397460938,-0.435744702148437
3.28760442605285,-0.196324536132812,10.0221281494141,-0.488417138671875
3.28964119748297,-0.162805712890625,10.0077629394531,-0.474051928710937
3.29167796891309,-0.1915361328125,9.99339772949219,-0.502782348632812
3.29378153765224,-0.196324536132812,10.0077629394531,-0.454898315429687
3.29588510639139,-0.177170922851562,9.9981861328125,-0.474051928710937
3.29798867513054,-0.181959326171875,9.98860932617187,-0.488417138671875
3.30009718478765,-0.186747729492187,10.0269165527344,-0.521935961914062
3.30220569444477,-0.143652099609375,9.97903251953125,-0.47884033203125
3.30431420410189,-0.158017309570312,9.96466730957031,-0.454898315429687
3.30638950878938,-0.129286889648437,10.0125513427734,-0.521935961914062
3.30846481347688,-0.143652099609375,9.96945571289062,-0.44053310546875
3.31054011816438,-0.138863696289063,9.98860932617187,-0.536301171875
3.31258167507627,-0.138863696289063,9.99339772949219,-0.488417138671875
3.31462323198817,-0.148440502929687,9.9981861328125,-0.4979939453125
3.31666478890006,-0.158017309570312,9.99339772949219,-0.435744702148437
3.31870590402593,-0.196324536132812,9.9981861328125,-0.435744702148437
3.32074701915179,-0.17238251953125,9.96466730957031,-0.502782348632812
3.32278813427766,-0.143652099609375,9.97903251953125,-0.488417138671875
3.32481841276073,-0.143652099609375,9.97424411621094,-0.45968671875
3.3268486912438,-0.13407529296875,9.96466730957031,-0.507570751953125
3.32887896972688,-0.143652099609375,9.95987890625,-0.464475122070312
3.33098571674293,-0.158017309570312,9.92636008300781,-0.407014282226562
3.33309246375899,-0.129286889648437,9.96466730957031,-0.469263525390625
3.33519921077505,-0.129286889648437,9.98382092285156,-0.464475122070312
3.33730278553634,-0.15322890625,9.98860932617187,-0.474051928710937
3.33940636029762,-0.148440502929687,9.98860932617187,-0.45968671875
3.34150993505891,-0.143652099609375,9.96466730957031,-0.454898315429687
3.34361130501334,-0.110133276367187,9.95987890625,-0.411802685546875
3.34571267496776,-0.129286889648437,10.0029745361328,-0.454898315429687
3.34781404492219,-0.148440502929687,9.96466730957031,-0.507570751953125
3.34991454378287,-0.15322890625,9.97424411621094,-0.45968671875
3.35201504264354,-0.15322890625,9.95987890625,-0.483628735351562
3.35411554150422,-0.138863696289063,9.98382092285156,-0.502782348632812
3.35621555327722,-0.138863696289063,9.94551369628906,-0.464475122070312
3.35831556505023,-0.148440502929687,9.95030209960937,-0.469263525390625
3.36041557682323,-0.186747729492187,9.95509050292969,-0.44053310546875
3.36251567616134,-0.148440502929687,9.95509050292969,-0.430956298828125
3.36461577549944,-0.215478149414062,10.0029745361328,-0.454898315429687
3.36671587483755,-0.205901342773437,9.97424411621094,-0.474051928710937
3.36881176671038,-0.17238251953125,9.98382092285156,-0.445321508789062
3.37090765858321,-0.158017309570312,9.96466730957031,-0.47884033203125
3.37300355045605,-0.186747729492187,9.97903251953125,-0.51714755859375
3.38242446327072,-0.124498486328125,9.93593688964844,-0.4979939453125
3.39184537608539,-0.148440502929687,9.94072529296875,-0.450109912109375
3.40126628890006,-0.220266552734375,9.95030209960937,-0.454898315429687
3.40337434185145,-0.181959326171875,9.97903251953125,-0.454898315429687
3.40548239480283,-0.167594116210937,9.93114848632812,-0.454898315429687
3.40759044775422,-0.167594116210937,9.91678327636719,-0.445321508789062
3.40969906819693,-0.13407529296875,9.94072529296875,-0.507570751953125
3.41180768863964,-0.167594116210937,9.96466730957031,-0.488417138671875
3.41391630908235,-0.1915361328125,9.93593688964844,-0.430956298828125
3.41598993907367,-0.201112939453125,9.95509050292969,-0.430956298828125
3.41806356906499,-0.186747729492187,9.94072529296875,-0.469263525390625
3.4201371990563,-0.158017309570312,9.94551369628906,-0.474051928710937
3.42217533799945,-0.17238251953125,9.94072529296875,-0.526724365234375
3.42421347694259,-0.201112939453125,9.95030209960937,-0.426167895507812
3.42625161588573,-0.196324536132812,9.93593688964844,-0.435744702148437
3.42843570703156,-0.201112939453125,9.93593688964844,-0.445321508789062
3.4306197981774,-0.181959326171875,9.95987890625,-0.464475122070312
3.43280388932323,-0.196324536132812,9.93114848632812,-0.44053310546875
3.43499160129155,-0.1915361328125,9.95030209960937,-0.502782348632812
3.43717931325986,-0.181959326171875,9.96945571289062,-0.483628735351562
3.43936702522818,-0.186747729492187,9.95509050292969,-0.45968671875
3.44155759928417,-0.1915361328125,9.96466730957031,-0.488417138671875
3.44374817334016,-0.167594116210937,9.95987890625,-0.454898315429687
3.44593874739615,-0.225054956054687,9.97903251953125,-0.454898315429687
3.44809811713356,-0.162805712890625,9.98382092285156,-0.445321508789062
3.45025748687097,-0.196324536132812,9.98860932617187,-0.493205541992187
3.45241685660839,-0.162805712890625,9.95030209960937,-0.445321508789062
3.4545428364261,-0.1915361328125,9.9215716796875,-0.454898315429687
3.45666881624381,-0.201112939453125,9.95509050292969,-0.416591088867187
3.45879479606151,-0.196324536132812,9.9981861328125,-0.493205541992187
3.46088254497644,-0.186747729492187,9.98860932617187,-0.488417138671875
3.46297029389137,-0.263362182617187,9.96466730957031,-0.426167895507812
3.4650580428063,-0.1915361328125,9.97903251953125,-0.407014282226562
3.46710565456845,-0.244208569335937,9.93114848632812,-0.450109912109375
3.46915326633061,-0.201112939453125,9.98860932617187,-0.445321508789062
3.47120087809276,-0.196324536132812,9.96466730957031,-0.493205541992187
3.47640832652483,-0.196324536132812,10.0077629394531,-0.454898315429687
3.48161577495691,-0.196324536132812,9.9981861328125,-0.47884033203125
3.48682322338898,-0.201112939453125,9.97903251953125,-0.47884033203125
3.48892337605825,-0.229843359375,9.96945571289062,-0.474051928710937
3.49102352872752,-0.201112939453125,9.99339772949219,-0.445321508789062
3.49312368139679,-0.234631762695312,10.0460701660156,-0.474051928710937
3.49522408015982,-0.225054956054687,10.0173397460938,-0.483628735351562
3.49732447892284,-0.225054956054687,9.98860932617187,-0.450109912109375
3.49942487768586,-0.196324536132812,9.97424411621094,-0.4979939453125
3.50152535945669,-0.253785375976562,10.0173397460938,-0.464475122070312
3.50362584122752,-0.1915361328125,10.0173397460938,-0.469263525390625
3.50572632299835,-0.225054956054687,9.9981861328125,-0.488417138671875
3.50778118703915,-0.225054956054687,9.98382092285156,-0.454898315429687
3.50983605107995,-0.225054956054687,9.97424411621094,-0.474051928710937
3.51189091512075,-0.17238251953125,9.99339772949219,-0.430956298828125
3.51399786911381,-0.201112939453125,10.0221281494141,-0.469263525390625
3.51610482310686,-0.1915361328125,9.98860932617187,-0.45968671875
3.51821177709992,-0.177170922851562,9.9981861328125,-0.483628735351562
3.52031495445452,-0.215478149414062,9.99339772949219,-0.464475122070312
3.52241813180912,-0.21068974609375,9.96945571289062,-0.488417138671875
3.52452130916372,-0.143652099609375,9.98860932617187,-0.51714755859375
3.526620844754,-0.24899697265625,9.97424411621094,-0.469263525390625
3.52872038034428,-0.21068974609375,9.96945571289062,-0.426167895507812
3.53081991593455,-0.220266552734375,9.97424411621094,-0.435744702148437
3.53291890681997,-0.196324536132812,9.98860932617187,-0.454898315429687
3.53501789770539,-0.167594116210937,10.0029745361328,-0.40222587890625
3.53711688859081,-0.138863696289063,10.0077629394531,-0.483628735351562
3.53918579120582,-0.186747729492187,10.0173397460938,-0.469263525390625
3.54125469382084,-0.21068974609375,9.97903251953125,-0.387860668945312
3.54332359643585,-0.162805712890625,9.96945571289062,-0.483628735351562
3.54543168926355,-0.186747729492187,9.9981861328125,-0.474051928710937
3.54753978209124,-0.177170922851562,9.98382092285156,-0.483628735351562
3.54964787491893,-0.21068974609375,10.0221281494141,-0.507570751953125
3.55175617233646,-0.1915361328125,9.96466730957031,-0.411802685546875
3.553864469754,-0.205901342773437,10.036493359375,-0.45968671875
3.55597276717153,-0.177170922851562,9.9981861328125,-0.47884033203125
3.55808107158776,-0.1915361328125,10.0077629394531,-0.4979939453125
3.56018937600399,-0.21068974609375,9.98382092285156,-0.507570751953125
3.56229768042023,-0.181959326171875,9.98382092285156,-0.416591088867187
3.56440604060903,-0.186747729492187,9.98860932617187,-0.44053310546875
3.56651440079783,-0.215478149414062,9.98382092285156,-0.469263525390625
3.56862276098664,-0.21068974609375,9.98382092285156,-0.531512768554687
3.57069643259037,-0.21068974609375,10.0125513427734,-0.512359155273437
3.5727701041941,-0.21068974609375,10.0173397460938,-0.483628735351562
3.57484377579783,-0.229843359375,10.0029745361328,-0.445321508789062
3.57695401022709,-0.215478149414062,9.95030209960937,-0.51714755859375
3.57906424465634,-0.181959326171875,9.9981861328125,-0.512359155273437
3.58117447908559,-0.17238251953125,9.98860932617187,-0.493205541992187
3.58328894951745,-0.158017309570312,10.0077629394531,-0.47884033203125
3.58540341994931,-0.201112939453125,10.0077629394531,-0.450109912109375
3.58751789038116,-0.196324536132812,9.99339772949219,-0.435744702148437
3.58963271845191,-0.143652099609375,9.96945571289062,-0.450109912109375
3.59174754652266,-0.201112939453125,9.93593688964844,-0.426167895507812
3.59386237459341,-0.148440502929687,10.0077629394531,-0.454898315429687
3.59597752937856,-0.177170922851562,10.0077629394531,-0.454898315429687
3.59809268416372,-0.148440502929687,10.0125513427734,-0.454898315429687
3.60020783894888,-0.205901342773437,10.0221281494141,-0.454898315429687
3.60228800279436,-0.167594116210937,9.96466730957031,-0.502782348632812
3.60436816663985,-0.143652099609375,9.99339772949219,-0.469263525390625
3.60644833048534,-0.143652099609375,10.0269165527344,-0.469263525390625
3.60855574612119,-0.158017309570312,9.96466730957031,-0.512359155273437
3.61066316175704,-0.215478149414062,9.98860932617187,-0.464475122070312
3.61277057739289,-0.148440502929687,9.98860932617187,-0.512359155273437
3.61487990237119,-0.201112939453125,9.97903251953125,-0.502782348632812
3.61698922734949,-0.17238251953125,9.98382092285156,-0.45968671875
3.61909855232778,-0.196324536132812,9.96945571289062,-0.507570751953125
3.62121040372752,-0.17238251953125,9.95987890625,-0.51714755859375
3.62332225512726,-0.1915361328125,9.97903251953125,-0.464475122070312
3.625434106527,-0.17238251953125,9.97424411621094,-0.483628735351562
3.62754849020756,-0.143652099609375,9.98860932617187,-0.430956298828125
3.62966287388812,-0.181959326171875,9.97903251953125,-0.45968671875
3.63177725756867,-0.201112939453125,9.95987890625,-0.483628735351562
3.63385780053742,-0.196324536132812,9.98382092285156,-0.493205541992187
3.63593834350617,-0.17238251953125,9.98860932617187,-0.469263525390625
3.63801888647492,-0.181959326171875,9.96945571289062,-0.454898315429687
3.64028056052006,-0.181959326171875,9.96945571289062,-0.536301171875
3.6425422345652,-0.148440502929687,9.92636008300781,-0.469263525390625
3.64480390861034,-0.15322890625,10.0221281494141,-0.507570751953125
3.64706526147492,-0.1915361328125,9.95987890625,-0.502782348632812
3.6493266143395,-0.181959326171875,9.99339772949219,-0.512359155273437
3.65158796720409,-0.158017309570312,9.95030209960937,-0.507570751953125
3.65384884616459,-0.162805712890625,9.96945571289062,-0.488417138671875
3.65610972512509,-0.129286889648437,10.0221281494141,-0.493205541992187
3.6583706040856,-0.13407529296875,10.0173397460938,-0.502782348632812
3.66055952612336,-0.15322890625,10.0173397460938,-0.45968671875
3.66274844816112,-0.143652099609375,10.0029745361328,-0.560243188476563
3.66493737019887,-0.167594116210937,10.0125513427734,-0.474051928710937
3.66705344989723,-0.143652099609375,10.0173397460938,-0.545877978515625
3.66916952959558,-0.158017309570312,10.0077629394531,-0.488417138671875
3.67128560929393,-0.15322890625,10.0556469726563,-0.531512768554687
3.67340058281823,-0.15322890625,10.0221281494141,-0.44053310546875
3.67551555634254,-0.162805712890625,9.98382092285156,-0.488417138671875
3.67763052986685,-0.15322890625,10.0269165527344,-0.507570751953125
3.67974561499054,-0.162805712890625,10.0269165527344,-0.51714755859375
3.68186070011424,-0.17238251953125,9.98860932617187,-0.531512768554687
3.68397578523794,-0.15322890625,10.0317049560547,-0.565031591796875
3.69469077969324,-0.196324536132812,9.95987890625,-0.545877978515625
3.70540577414853,-0.158017309570312,9.95987890625,-0.474051928710937
3.71612076860383,-0.17238251953125,9.94551369628906,-0.45968671875
3.71824347499489,-0.158017309570312,9.96945571289062,-0.531512768554687
3.72036618138595,-0.186747729492187,9.97424411621094,-0.4979939453125
3.722488887777,-0.225054956054687,9.98860932617187,-0.474051928710937
3.72460563625791,-0.1915361328125,9.96945571289062,-0.430956298828125
3.72672238473881,-0.17238251953125,9.95987890625,-0.435744702148437
3.72883913321972,-0.1915361328125,9.9981861328125,-0.464475122070312
3.73095550344541,-0.167594116210937,9.96945571289062,-0.464475122070312
3.73307187367111,-0.158017309570312,9.98382092285156,-0.507570751953125
3.7351882438968,-0.186747729492187,9.92636008300781,-0.469263525390625
3.73730483509689,-0.167594116210937,9.93114848632812,-0.483628735351562
3.73942142629697,-0.186747729492187,9.97424411621094,-0.416591088867187
3.74153801749706,-0.1915361328125,9.94551369628906,-0.416591088867187
3.74371786493629,-0.158017309570312,9.94551369628906,-0.45968671875
3.74589771237553,-0.177170922851562,9.95509050292969,-0.435744702148437
3.74807755981476,-0.21068974609375,9.92636008300781,-0.450109912109375
3.75022459990808,-0.177170922851562,9.94551369628906,-0.474051928710937
3.75237164000139,-0.177170922851562,9.91199487304687,-0.45968671875
3.75451868009471,-0.21068974609375,9.95987890625,-0.488417138671875
3.75670425035295,-0.162805712890625,9.96945571289062,-0.483628735351562
3.7588898206112,-0.162805712890625,9.94072529296875,-0.464475122070312
3.76107539086945,-0.15322890625,9.95509050292969,-0.45968671875
3.7632613346086,-0.138863696289063,9.94551369628906,-0.502782348632812
3.76544727834774,-0.162805712890625,9.95509050292969,-0.464475122070312
3.76763322208689,-0.177170922851562,9.96466730957031,-0.469263525390625
3.7698193417158,-0.13407529296875,9.99339772949219,-0.531512768554687
3.77200546134471,-0.181959326171875,9.97903251953125,-0.507570751953125
3.77419158097361,-0.143652099609375,9.94072529296875,-0.521935961914062
3.77637794892066,-0.162805712890625,9.97424411621094,-0.47884033203125
3.77856431686771,-0.17238251953125,9.98382092285156,-0.464475122070312
3.78075068481476,-0.196324536132812,9.95509050292969,-0.4979939453125
3.78290249606693,-0.162805712890625,9.96945571289062,-0.488417138671875
3.7850543073191,-0.158017309570312,9.94551369628906,-0.464475122070312
3.78720611857127,-0.158017309570312,9.95509050292969,-0.450109912109375
3.78932441788768,-0.148440502929687,9.97424411621094,-0.4979939453125
3.79144271720408,-0.186747729492187,10.0125513427734,-0.4979939453125
3.79356101652049,-0.201112939453125,9.96945571289062,-0.51714755859375
3.79567779033776,-0.186747729492187,9.95987890625,-0.483628735351562
3.79779456415503,-0.167594116210937,9.96945571289062,-0.445321508789062
3.79991133797231,-0.158017309570312,9.95030209960937,-0.450109912109375
3.80309405259904,-0.158017309570312,9.96945571289062,-0.47884033203125
3.80627676722578,-0.138863696289063,9.96466730957031,-0.44053310546875
3.80945948185251,-0.15322890625,9.98860932617187,-0.483628735351562
3.81156583851484,-0.205901342773437,9.95987890625,-0.47884033203125
3.81367219517717,-0.17238251953125,9.98382092285156,-0.430956298828125
3.81577855183949,-0.17238251953125,9.94072529296875,-0.512359155273437
3.81788096069366,-0.17238251953125,9.97903251953125,-0.47884033203125
3.81998336954782,-0.162805712890625,9.97424411621094,-0.474051928710937
3.82208577840199,-0.162805712890625,9.97903251953125,-0.464475122070312
3.82418702992109,-0.158017309570312,9.9981861328125,-0.4213794921875
3.82628828144019,-0.162805712890625,9.98382092285156,-0.483628735351562
3.82838953295928,-0.21068974609375,9.98860932617187,-0.47884033203125
3.83049119821536,-0.162805712890625,9.9981861328125,-0.474051928710937
3.83259286347144,-0.196324536132812,9.99339772949219,-0.531512768554687
3.83469452872752,-0.17238251953125,9.99339772949219,-0.469263525390625
3.83686481648793,-0.177170922851562,9.9981861328125,-0.545877978515625
3.83903510424835,-0.158017309570312,9.96945571289062,-0.502782348632812
3.84120539200877,-0.196324536132812,9.95030209960937,-0.4979939453125
3.84331711412248,-0.110133276367187,9.95987890625,-0.4979939453125
3.8454288362362,-0.201112939453125,9.97424411621094,-0.493205541992187
3.84754055834991,-0.1915361328125,10.0269165527344,-0.512359155273437
3.84965165264245,-0.186747729492187,9.98860932617187,-0.502782348632812
3.85176274693498,-0.17238251953125,9.98382092285156,-0.47884033203125
3.85387384122752,-0.177170922851562,9.97903251953125,-0.507570751953125
3.85598507267283,-0.148440502929687,9.97903251953125,-0.464475122070312
3.85809630411814,-0.186747729492187,9.9981861328125,-0.521935961914062
3.86020753556345,-0.17238251953125,9.98382092285156,-0.502782348632812
3.86231908384904,-0.177170922851562,9.98382092285156,-0.4979939453125
3.86443063213463,-0.1915361328125,9.97424411621094,-0.47884033203125
3.86654218042022,-0.17238251953125,9.97424411621094,-0.454898315429687
3.86872407158776,-0.158017309570312,9.94551369628906,-0.416591088867187
3.87090596275529,-0.1915361328125,9.99339772949219,-0.464475122070312
3.87308785392282,-0.17238251953125,9.9981861328125,-0.454898315429687
3.87527207050269,-0.143652099609375,9.95987890625,-0.464475122070312
3.87745628708255,-0.162805712890625,9.97903251953125,-0.4213794921875
3.87964050366241,-0.143652099609375,9.97424411621094,-0.51714755859375
3.88175687095842,-0.1915361328125,10.0317049560547,-0.493205541992187
3.88387323825443,-0.167594116210937,9.98382092285156,-0.483628735351562
3.88598960555044,-0.15322890625,9.96466730957031,-0.4213794921875
3.88810521101919,-0.181959326171875,9.94072529296875,-0.469263525390625
3.89022081648794,-0.181959326171875,9.95509050292969,-0.488417138671875
3.89233642195669,-0.15322890625,9.97903251953125,-0.469263525390625
3.89445188224315,-0.148440502929687,9.96466730957031,-0.44053310546875
3.89656734252961,-0.167594116210937,9.9981861328125,-0.521935961914062
3.89868280281607,-0.181959326171875,9.95509050292969,-0.464475122070312
3.90086469767284,-0.162805712890625,9.99339772949219,-0.488417138671875
3.90304659252961,-0.143652099609375,9.97903251953125,-0.51714755859375
3.90522848738638,-0.181959326171875,10.0556469726563,-0.507570751953125
3.90741346872319,-0.148440502929687,9.98382092285156,-0.474051928710937
3.90959845005999,-0.167594116210937,10.0125513427734,-0.45968671875
3.9117834313968,-0.167594116210937,9.99339772949219,-0.464475122070312
3.9139015626902,-0.148440502929687,10.0269165527344,-0.483628735351562
3.9160196939836,-0.148440502929687,10.0556469726563,-0.464475122070312
3.91813782527701,-0.13407529296875,9.97903251953125,-0.502782348632812
3.92025850084124,-0.13407529296875,10.036493359375,-0.47884033203125
3.92237917640548,-0.143652099609375,10.0460701660156,-0.430956298828125
3.92449985196972,-0.129286889648437,10.0317049560547,-0.450109912109375
3.92662059665288,-0.13407529296875,10.0317049560547,-0.450109912109375
3.92874134133604,-0.1149216796875,10.0556469726563,-0.450109912109375
3.9308620860192,-0.13407529296875,10.0748005859375,-0.426167895507812
3.93304308211295,-0.15322890625,10.0556469726563,-0.426167895507812
3.9352240782067,-0.138863696289063,10.0029745361328,-0.469263525390625
3.93740507430045,-0.119710083007812,10.0556469726563,-0.450109912109375
3.93958679337597,-0.162805712890625,10.0748005859375,-0.445321508789062
3.94176851245149,-0.167594116210937,10.0029745361328,-0.47884033203125
3.94395023152701,-0.13407529296875,10.0077629394531,-0.411802685546875
3.9460627595218,-0.09576806640625,10.0125513427734,-0.445321508789062
3.94817528751659,-0.138863696289063,10.036493359375,-0.464475122070312
3.95028781551139,-0.138863696289063,10.0125513427734,-0.4213794921875
3.95239844083691,-0.129286889648437,9.99339772949219,-0.426167895507812
3.95450906616243,-0.110133276367187,10.036493359375,-0.474051928710937
3.95661969148795,-0.167594116210937,10.0317049560547,-0.378283862304687
3.95872870722146,-0.167594116210937,10.0029745361328,-0.469263525390625
3.96083772295496,-0.181959326171875,10.0077629394531,-0.4213794921875
3.96294673868847,-0.162805712890625,10.0077629394531,-0.430956298828125
3.96513504413552,-0.181959326171875,9.9981861328125,-0.430956298828125
3.96732334958257,-0.15322890625,10.0029745361328,-0.44053310546875
3.96951165502962,-0.162805712890625,9.99339772949219,-0.411802685546875
3.97169800897927,-0.143652099609375,9.9981861328125,-0.430956298828125
3.97388436292893,-0.177170922851562,10.0125513427734,-0.416591088867187
3.97607071687858,-0.17238251953125,9.9981861328125,-0.4213794921875
3.97825354185688,-0.138863696289063,10.0221281494141,-0.426167895507812
3.98043636683518,-0.205901342773437,10.0173397460938,-0.411802685546875
3.98261919181348,-0.21068974609375,10.0412817626953,-0.435744702148437
3.98479954120584,-0.186747729492187,10.0604353759766,-0.4213794921875
3.9869798905982,-0.186747729492187,10.036493359375,-0.4213794921875
3.98916023999056,-0.15322890625,9.99339772949219,-0.411802685546875
3.99133933775532,-0.162805712890625,10.0221281494141,-0.392649072265625
3.99351843552007,-0.225054956054687,10.0556469726563,-0.36391865234375
3.99569753328483,-0.177170922851562,10.0508585693359,-0.349553442382812
3.99787757039421,-0.225054956054687,10.0460701660156,-0.335188232421875
4.00005760750358,-0.1915361328125,10.0508585693359,-0.36391865234375
4.00223764461295,-0.225054956054687,10.0317049560547,-0.359130249023437
4.00441759296365,-0.1915361328125,10.0317049560547,-0.330399829101562
4.00659754131434,-0.205901342773437,10.0604353759766,-0.301669409179687
4.00877748966503,-0.177170922851562,10.0556469726563,-0.411802685546875
4.01421880978764,-0.177170922851562,9.9981861328125,-0.416591088867187
4.01966012991026,-0.1915361328125,10.0029745361328,-0.339976635742188
4.02510145003287,-0.21068974609375,10.0029745361328,-0.311246215820312
4.02729355311446,-0.1915361328125,10.0029745361328,-0.349553442382812
4.02948565619606,-0.158017309570312,9.95987890625,-0.392649072265625
4.03167775927766,-0.181959326171875,10.0173397460938,-0.411802685546875
4.03387063666481,-0.177170922851562,9.98382092285156,-0.387860668945312
4.03606351405196,-0.186747729492187,9.97424411621094,-0.397437475585937
4.03825639143912,-0.158017309570312,9.97903251953125,-0.368707055664062
4.04044931070995,-0.143652099609375,9.9981861328125,-0.426167895507812
4.04264222998078,-0.143652099609375,9.99339772949219,-0.464475122070312
4.04483514925161,-0.162805712890625,9.97903251953125,-0.40222587890625
4.04695826871776,-0.1149216796875,9.97424411621094,-0.454898315429687
4.04908138818391,-0.158017309570312,9.95987890625,-0.383072265625
4.05120450765005,-0.158017309570312,9.96466730957031,-0.483628735351562
4.05338984630023,-0.100556469726563,9.9981861328125,-0.416591088867187
4.0555751849504,-0.09576806640625,9.98382092285156,-0.426167895507812
4.05776052360057,-0.09576806640625,9.93593688964844,-0.430956298828125
4.05994993701203,-0.105344873046875,9.98382092285156,-0.4213794921875
4.06213935042349,-0.119710083007812,9.97424411621094,-0.454898315429687
4.06432876383495,-0.1149216796875,9.9981861328125,-0.354341845703125
4.06652182687749,-0.110133276367187,9.98860932617187,-0.397437475585937
4.06871488992002,-0.110133276367187,10.0077629394531,-0.397437475585937
4.07090795296256,-0.0909796630859375,9.9981861328125,-0.4213794921875
4.07310172564051,-0.124498486328125,9.99339772949219,-0.378283862304687
4.07529549831846,-0.0718260498046875,9.9981861328125,-0.378283862304687
4.07748927099641,-0.086191259765625,9.97424411621094,-0.411802685546875
4.07961433946429,-0.100556469726563,10.0125513427734,-0.36391865234375
4.08173940793217,-0.086191259765625,10.0029745361328,-0.349553442382812
4.08386447640006,-0.124498486328125,10.0077629394531,-0.330399829101562
4.08604739827505,-0.0909796630859375,9.97424411621094,-0.320823022460937
4.08823032015005,-0.105344873046875,9.9981861328125,-0.416591088867187
4.09041324202505,-0.110133276367187,9.98860932617187,-0.445321508789062
4.09259686713356,-0.0622492431640625,9.97903251953125,-0.450109912109375
4.09478049224207,-0.119710083007812,9.98382092285156,-0.359130249023437
4.09696411735058,-0.1149216796875,10.0029745361328,-0.445321508789062
4.09914787830978,-0.124498486328125,10.0077629394531,-0.44053310546875
4.10133163926898,-0.129286889648437,9.95987890625,-0.4213794921875
4.10351540022818,-0.124498486328125,10.0269165527344,-0.416591088867187
4.10569924028894,-0.138863696289063,10.0317049560547,-0.407014282226562
4.10788308034971,-0.13407529296875,9.98860932617187,-0.40222587890625
4.11006692041047,-0.148440502929687,9.95509050292969,-0.383072265625
4.11218327273252,-0.13407529296875,9.99339772949219,-0.359130249023437
4.11429962505457,-0.100556469726563,10.036493359375,-0.407014282226562
4.11641597737662,-0.09576806640625,10.0029745361328,-0.387860668945312
4.1185964817169,-0.119710083007812,9.98382092285156,-0.430956298828125
4.12077698605718,-0.1149216796875,9.98860932617187,-0.426167895507812
4.12295749039746,-0.110133276367187,9.9981861328125,-0.454898315429687
4.12513847455545,-0.143652099609375,9.98382092285156,-0.445321508789062
4.12731945871343,-0.158017309570312,9.97903251953125,-0.426167895507812
4.12950044287142,-0.13407529296875,9.97424411621094,-0.407014282226562
4.13168115326639,-0.105344873046875,9.97424411621094,-0.4213794921875
4.13386186366135,-0.13407529296875,9.98382092285156,-0.521935961914062
4.13604257405632,-0.100556469726563,9.9215716796875,-0.45968671875
4.13822321099208,-0.129286889648437,9.96945571289062,-0.44053310546875
4.14040384792784,-0.158017309570312,9.93593688964844,-0.430956298828125
4.14258448486361,-0.15322890625,9.94072529296875,-0.435744702148437
4.14470019840528,-0.129286889648437,9.95030209960937,-0.45968671875
4.14681591194694,-0.143652099609375,10.0077629394531,-0.411802685546875
4.14893162548861,-0.15322890625,9.98860932617187,-0.430956298828125
4.15096362787576,-0.13407529296875,9.95030209960937,-0.45968671875
4.15299563026292,-0.148440502929687,9.96945571289062,-0.469263525390625
4.15502763265007,-0.143652099609375,9.9981861328125,-0.45968671875
4.15705968093566,-0.17238251953125,10.0125513427734,-0.454898315429687
4.15909172922125,-0.17238251953125,10.0077629394531,-0.407014282226562
4.16112377750684,-0.17238251953125,10.0317049560547,-0.483628735351562
4.16315582199469,-0.167594116210937,9.96466730957031,-0.435744702148437
4.16518786648254,-0.143652099609375,10.0269165527344,-0.416591088867187
4.16721991097038,-0.167594116210937,9.97424411621094,-0.483628735351562
4.16925188340962,-0.143652099609375,9.97424411621094,-0.368707055664062
4.17128385584886,-0.177170922851562,10.0029745361328,-0.407014282226562
4.17331582828809,-0.158017309570312,9.99339772949219,-0.397437475585937
4.17534764675598,-0.158017309570312,10.0029745361328,-0.36391865234375
4.17737946522386,-0.13407529296875,9.97424411621094,-0.387860668945312
4.17941128369174,-0.158017309570312,9.98382092285156,-0.354341845703125
4.1815126425242,-0.177170922851562,10.0221281494141,-0.354341845703125
4.18361400135667,-0.15322890625,10.0029745361328,-0.368707055664062
4.18571536018913,-0.129286889648437,9.97903251953125,-0.407014282226562
4.18782164643045,-0.17238251953125,10.0125513427734,-0.430956298828125
4.18992793267177,-0.1915361328125,9.99339772949219,-0.407014282226562
4.19203421891309,-0.138863696289063,9.95987890625,-0.45968671875
4.19412945570237,-0.167594116210937,9.96945571289062,-0.445321508789062
4.19622469249165,-0.162805712890625,9.95509050292969,-0.387860668945312
4.19831992928092,-0.15322890625,10.0029745361328,-0.426167895507812
4.2003995113393,-0.181959326171875,9.99339772949219,-0.430956298828125
4.20247909339768,-0.148440502929687,10.0077629394531,-0.454898315429687
4.20455867545606,-0.162805712890625,10.0173397460938,-0.378283862304687
4.20662269360384,-0.181959326171875,10.0221281494141,-0.435744702148437
4.20868671175163,-0.181959326171875,9.9981861328125,-0.397437475585937
4.21075072989941,-0.15322890625,10.0412817626953,-0.416591088867187
4.21286324164529,-0.148440502929687,10.0077629394531,-0.45968671875
4.21497575339116,-0.167594116210937,10.0125513427734,-0.368707055664062
4.21708826513704,-0.119710083007812,10.0460701660156,-0.378283862304687
4.21927356396517,-0.158017309570312,10.0652237792969,-0.416591088867187
4.22145886279329,-0.167594116210937,10.0317049560547,-0.392649072265625
4.22364416162142,-0.186747729492187,10.0460701660156,-0.373495458984375
4.22583010004372,-0.15322890625,10.0412817626953,-0.32561142578125
4.22801603846604,-0.181959326171875,10.0460701660156,-0.354341845703125
4.23020197688835,-0.15322890625,10.0317049560547,-0.354341845703125
4.23238774273036,-0.205901342773437,10.0652237792969,-0.339976635742188
4.23457350857237,-0.186747729492187,10.0221281494141,-0.316034619140625
4.23675927441439,-0.220266552734375,10.0652237792969,-0.3447650390625
4.2389451137156,-0.1915361328125,10.0508585693359,-0.349553442382812
4.24113095301682,-0.17238251953125,10.0412817626953,-0.301669409179687
4.24331679231803,-0.1915361328125,10.0700121826172,-0.383072265625
4.2454295761722,-0.225054956054687,10.0317049560547,-0.349553442382812
4.24754236002637,-0.196324536132812,10.0125513427734,-0.330399829101562
4.24965514388053,-0.177170922851562,10.0460701660156,-0.339976635742188
4.25169302115918,-0.196324536132812,10.0317049560547,-0.3447650390625
4.25373089843783,-0.205901342773437,10.0460701660156,-0.330399829101562
4.25576877571647,-0.148440502929687,10.0412817626953,-0.296881005859375
4.25780506309711,-0.196324536132812,9.99339772949219,-0.282515795898438
4.25984135047776,-0.201112939453125,10.0221281494141,-0.32561142578125
4.2618776378584,-0.167594116210937,9.97903251953125,-0.320823022460937
4.26603578211838,-0.167594116210937,10.0221281494141,-0.263362182617187
4.27019392637837,-0.119710083007812,9.94072529296875,-0.296881005859375
4.27435207063835,-0.15322890625,9.98860932617187,-0.28730419921875
4.27644575151943,-0.162805712890625,9.9981861328125,-0.258573779296875
4.2785394324005,-0.158017309570312,9.95030209960937,-0.282515795898438
4.28063311328158,-0.110133276367187,9.96466730957031,-0.339976635742188
4.2827269261071,-0.162805712890625,9.95030209960937,-0.272938989257812
4.28482073893263,-0.119710083007812,9.95987890625,-0.272938989257812
4.28691455175815,-0.148440502929687,9.98860932617187,-0.3064578125
4.28900189123569,-0.105344873046875,9.9981861328125,-0.239420166015625
4.29108923071323,-0.158017309570312,10.0077629394531,-0.301669409179687
4.29317657019076,-0.0814028564453125,10.0269165527344,-0.311246215820312
4.29538650640224,-0.05746083984375,9.9981861328125,-0.296881005859375
4.29759644261372,-0.105344873046875,10.0221281494141,-0.296881005859375
4.2998063788252,-0.15322890625,9.97903251953125,-0.28730419921875
4.30200229711947,-0.1149216796875,9.97903251953125,-0.32561142578125
4.30419821541374,-0.110133276367187,9.97424411621094,-0.292092602539062
4.30639413370801,-0.0814028564453125,9.96466730957031,-0.330399829101562
4.30858970836079,-0.105344873046875,9.97903251953125,-0.229843359375
4.31078528301356,-0.100556469726563,9.98382092285156,-0.301669409179687
4.31298085766634,-0.119710083007812,10.0029745361328,-0.28730419921875
4.31517623103873,-0.076614453125,9.95509050292969,-0.320823022460937
4.31737160441113,-0.110133276367187,10.0125513427734,-0.282515795898438
4.31956697778352,-0.105344873046875,10.0077629394531,-0.234631762695312
4.32176227498405,-0.09576806640625,10.0125513427734,-0.296881005859375
4.32395757218457,-0.086191259765625,10.0269165527344,-0.3447650390625
4.32615286938509,-0.0909796630859375,10.0173397460938,-0.272938989257812
4.32834804787901,-0.138863696289063,10.0891657958984,-0.225054956054687
4.33054322637294,-0.086191259765625,10.0317049560547,-0.296881005859375
4.33273840486686,-0.0814028564453125,10.0029745361328,-0.263362182617187
4.33486486254915,-0.100556469726563,10.0317049560547,-0.258573779296875
4.33699132023144,-0.0814028564453125,10.0460701660156,-0.282515795898438
4.33911777791374,-0.13407529296875,10.0652237792969,-0.234631762695312
4.34560783108214,-0.129286889648437,10.0795889892578,-0.138863696289063
4.35209788425054,-0.15322890625,10.0412817626953,-0.229843359375
4.35858793741894,-0.181959326171875,10.0604353759766,-0.229843359375
4.36077278040939,-0.148440502929687,10.0700121826172,-0.13407529296875
4.36295762339984,-0.143652099609375,10.0460701660156,-0.220266552734375
4.3651424663903,-0.129286889648437,10.0891657958984,-0.138863696289063
4.36725917656825,-0.124498486328125,10.0939541992188,-0.158017309570312
4.3693758867462,-0.124498486328125,10.1083194091797,-0.162805712890625
4.37149259692415,-0.138863696289063,10.0748005859375,-0.1149216796875
4.3736126804745,-0.129286889648437,10.0795889892578,-0.220266552734375
4.37573276402484,-0.13407529296875,10.1035310058594,-0.119710083007812
4.37785284757519,-0.129286889648437,10.1131078125,-0.148440502929687
4.38003714900748,-0.100556469726563,10.0891657958984,-0.09576806640625
4.38222145043977,-0.143652099609375,10.0700121826172,-0.1149216796875
4.38440575187207,-0.201112939453125,10.0652237792969,-0.181959326171875
4.38659152248839,-0.148440502929687,10.0843773925781,-0.129286889648437
4.38877729310471,-0.186747729492187,10.1226846191406,-0.05746083984375
4.39096306372102,-0.15322890625,10.1226846191406,-0.067037646484375
4.39314899481911,-0.196324536132812,10.1083194091797,-0.0718260498046875
4.3953349259172,-0.181959326171875,10.0748005859375,-0.0909796630859375
4.39752085701529,-0.167594116210937,10.0987426025391,-0.05746083984375
4.39963515020106,-0.15322890625,10.0795889892578,-0.0814028564453125
4.40174944338682,-0.158017309570312,10.1035310058594,-0.067037646484375
4.40386373657259,-0.177170922851562,10.1035310058594,-0.05746083984375
4.40597328930696,-0.148440502929687,10.0748005859375,-0.0718260498046875
4.40808284204134,-0.167594116210937,10.0748005859375,-0.05746083984375
4.41019239477571,-0.158017309570312,10.0987426025391,-0.047884033203125
4.41244846465418,-0.138863696289063,10.0412817626953,-0.0383072265625
4.41470453453265,-0.186747729492187,10.1083194091797,-0.0430956298828125
4.41696060441112,-0.158017309570312,10.0460701660156,-0.0335188232421875
4.4192179603139,-0.167594116210937,10.0795889892578,-0.009576806640625
4.42147531621668,-0.201112939453125,10.0508585693359,0.0047884033203125
4.42373267211946,-0.196324536132812,10.0221281494141,0.0383072265625
4.42599017266199,-0.167594116210937,10.0508585693359,0.086191259765625
4.42824767320452,-0.1915361328125,10.0795889892578,0.009576806640625
4.43050517374706,-0.186747729492187,10.0700121826172,0.047884033203125
4.43269961743195,-0.21068974609375,10.0652237792969,0.0526724365234375
4.43489406111685,-0.181959326171875,10.0795889892578,-0.009576806640625
4.43708850480174,-0.162805712890625,10.0652237792969,0.0335188232421875
4.43928005135122,-0.1915361328125,10.0652237792969,0.01915361328125
4.4414715979007,-0.177170922851562,10.0460701660156,0.047884033203125
4.44366314445018,-0.1915361328125,10.0604353759766,0.0622492431640625
4.44585158813508,-0.167594116210937,10.0125513427734,0.110133276367187
4.44804003181998,-0.177170922851562,10.0460701660156,0.13407529296875
4.45022847550487,-0.148440502929687,10.036493359375,0.05746083984375
4.45241452509254,-0.177170922851562,10.0508585693359,0.100556469726563
4.45460057468022,-0.167594116210937,10.0460701660156,0.1149216796875
4.45678662426789,-0.177170922851562,10.0029745361328,0.15322890625
4.46303121378612,-0.1149216796875,9.94551369628906,0.239420166015625
4.46927580330435,-0.1149216796875,9.95030209960937,0.229843359375
4.47552039282258,-0.086191259765625,9.96466730957031,0.2681505859375
4.47755238663768,-0.0814028564453125,9.94072529296875,0.28730419921875
4.47958438045279,-0.105344873046875,9.90241806640625,0.282515795898438
4.48161637426789,-0.076614453125,9.95987890625,0.239420166015625
4.48365007001442,-0.076614453125,9.9215716796875,0.311246215820312
4.48568376576095,-0.076614453125,9.93114848632812,0.277727392578125
4.48771746150748,-0.0430956298828125,9.9215716796875,0.234631762695312
4.48975106296147,-0.0383072265625,9.90241806640625,0.311246215820312
4.49178466441546,-0.0526724365234375,9.9215716796875,0.272938989257812
4.49381826586946,-0.0526724365234375,9.89762966308594,0.2681505859375
4.49591744197623,-0.067037646484375,9.9215716796875,0.253785375976562
4.498016618083,-0.067037646484375,9.88805285644531,0.330399829101562
4.50011579418977,-0.0143652099609375,9.90720646972656,0.258573779296875
4.5022187618547,-0.0430956298828125,9.89284125976562,0.239420166015625
4.50432172951963,-0.009576806640625,9.84016882324219,0.330399829101562
4.50642469718456,-0.0239420166015625,9.82580361328125,0.3064578125
4.508518153402,-0.0047884033203125,9.85453403320312,0.320823022460937
4.51061160961945,0.0,9.84016882324219,0.359130249023437
4.5127050658369,0.0143652099609375,9.83059201660156,0.32561142578125
4.51478858900313,0.047884033203125,9.83059201660156,0.330399829101562
4.51687211216936,0.047884033203125,9.82101520996094,0.320823022460937
4.5189556353356,0.0047884033203125,9.8449572265625,0.3064578125
4.52102641305912,0.05746083984375,9.85932243652344,0.311246215820312
4.52309719078265,0.0383072265625,9.79228479003906,0.292092602539062
4.52516796850617,0.0622492431640625,9.83538041992187,0.3447650390625
4.52728820043976,0.0622492431640625,9.82580361328125,0.272938989257812
4.52940843237336,0.047884033203125,9.85453403320312,0.311246215820312
4.53152866430695,0.110133276367187,9.8449572265625,0.316034619140625
4.53364009594758,0.124498486328125,9.84016882324219,0.335188232421875
4.53575152758821,0.138863696289063,9.89284125976562,0.3447650390625
4.53786295922883,0.119710083007812,9.87368764648437,0.339976635742188
4.53996900360817,0.124498486328125,9.85453403320312,0.320823022460937
4.54207504798751,0.076614453125,9.85453403320312,0.36391865234375
4.54418109236686,0.129286889648437,9.89284125976562,0.378283862304687
4.54628681795279,0.0814028564453125,9.91678327636719,0.373495458984375
4.54839254353873,0.0909796630859375,9.95509050292969,0.373495458984375
4.55049826912467,0.124498486328125,9.95509050292969,0.4213794921875
4.55260409421147,0.0622492431640625,9.97424411621094,0.435744702148437
4.55470991929828,0.01915361328125,9.97903251953125,0.416591088867187
4.55681574438508,0.0430956298828125,10.0173397460938,0.45968671875
4.55899042266199,0.0143652099609375,9.97903251953125,0.407014282226562
4.5611651009389,0.028730419921875,10.0125513427734,0.4213794921875
4.56333977921581,0.0,10.0029745361328,0.445321508789062
4.56552869186772,-0.047884033203125,9.9981861328125,0.493205541992187
4.56771760451963,-0.0622492431640625,10.0412817626953,0.426167895507812
4.56990651717154,-0.0718260498046875,10.0508585693359,0.392649072265625
4.57209535549619,-0.100556469726563,10.0652237792969,0.392649072265625
4.57428419382085,-0.0909796630859375,10.1226846191406,0.526724365234375
4.5764730321455,-0.13407529296875,10.0843773925781,0.426167895507812
4.5785885477705,-0.119710083007812,10.1035310058594,0.526724365234375
4.5807040633955,-0.13407529296875,10.1131078125,0.550666381835937
4.5828195790205,-0.15322890625,10.0939541992188,0.51714755859375
4.58493496356911,-0.13407529296875,10.1131078125,0.584185205078125
4.58705034811773,-0.15322890625,10.1466266357422,0.608127221679687
4.58916573266634,-0.105344873046875,10.1274730224609,0.5746083984375
4.59128082858648,-0.119710083007812,10.1466266357422,0.679953271484375
4.59339592450661,-0.110133276367187,10.1083194091797,0.694318481445312
4.59551102042675,-0.076614453125,10.1274730224609,0.732625708007812
4.59762611927657,-0.09576806640625,10.1131078125,0.679953271484375
4.5997412181264,-0.086191259765625,10.0748005859375,0.74699091796875
4.60185631697622,-0.05746083984375,10.0891657958984,0.818816967773437
4.60397102661164,-0.086191259765625,10.0221281494141,0.809240161132812
4.60608573624706,-0.1149216796875,10.0269165527344,0.866701000976562
4.60820044588247,-0.09576806640625,10.0317049560547,0.9193734375
4.61263437866242,-0.067037646484375,9.78749638671875,1.01514150390625
4.61706831144237,-0.0909796630859375,9.76355437011719,0.991199487304687
4.62150224422232,-0.076614453125,9.66299790039063,1.04866032714844
4.62371180900097,-0.067037646484375,9.65820949707031,1.09175595703125
4.62592137377962,-0.0383072265625,9.62947907714844,0.962469067382812
4.62813093855826,-0.028730419921875,9.58638344726563,1.06781394042969
4.63032699715201,-0.047884033203125,9.56722983398437,1.08217915039062
4.63252305574576,-0.0622492431640625,9.53371101074219,1.02471831054687
4.63471911433951,-0.09576806640625,9.52413420410156,1.05823713378906
4.63691627313943,-0.0526724365234375,9.45709655761719,1.01514150390625
4.63911343193934,-0.0622492431640625,9.37569370117187,1.01035310058594
4.64131059073925,-0.124498486328125,9.36132849121094,1.01035310058594
4.64350868817849,-0.0718260498046875,9.32302126464844,0.952892260742187
4.64570678561772,-0.076614453125,9.29907924804687,0.97683427734375
4.64790488305696,-0.076614453125,9.22246479492187,0.857124194335937
4.65010387953048,-0.100556469726563,9.17458076171875,0.905008227539062
4.65230287600401,-0.124498486328125,9.16021555175781,0.852335791015625
4.65450187247753,-0.0814028564453125,9.09317790527344,0.794874951171875
4.65666653252527,-0.0718260498046875,9.09317790527344,0.790086547851562
4.65883119257302,-0.086191259765625,9.02135185546875,0.828393774414062
4.66099585262076,-0.0430956298828125,9.0021982421875,0.761356127929687
4.66641523122861,-0.124498486328125,8.89685336914062,0.852335791015625
4.67183460983647,-0.13407529296875,8.87291135253906,0.814028564453125
4.67725398844432,-0.162805712890625,8.88248815917969,0.828393774414062
4.67943858827071,-0.186747729492187,8.95910261230469,0.828393774414062
4.6816231880971,-0.1915361328125,8.99262143554687,0.82360537109375
4.68380778792349,-0.205901342773437,9.05487067871094,0.833182177734375
4.68599225493737,-0.253785375976562,9.05008227539062,0.86191259765625
4.68817672195126,-0.28730419921875,9.04529387207031,0.871489404296875
4.69036118896515,-0.316034619140625,9.09317790527344,0.914585034179687
4.69247516411706,-0.330399829101562,9.10275471191406,0.9193734375
4.69458913926897,-0.320823022460937,9.08360109863281,0.933738647460937
4.69670311442088,-0.292092602539062,9.05965908203125,0.9576806640625
4.69881443147817,-0.378283862304687,9.10754311523437,0.995987890625
4.70092574853546,-0.368707055664062,9.06444748535156,1.08696755371094
4.70303706559275,-0.387860668945312,9.0021982421875,0.981622680664062
4.70521741997644,-0.339976635742188,9.02135185546875,0.981622680664062
4.70739777436011,-0.397437475585937,9.01177504882812,1.02471831054687
4.70957812874379,-0.368707055664062,9.01656345214844,1.07260234375
4.71175917377418,-0.378283862304687,8.963891015625,1.06302553710937
4.71394021880456,-0.40222587890625,8.90643017578125,1.04387192382812
4.71612126383494,-0.411802685546875,8.82502731933594,1.1109095703125
4.71830232123511,-0.445321508789062,8.86333454589844,1.12048637695313
4.72048337863529,-0.488417138671875,8.82023891601562,1.21146604003906
4.72266443603546,-0.502782348632812,8.76277807617187,1.13485158691406
4.72485234423858,-0.47884033203125,8.67179841308594,1.23540805664062
4.72704025244171,-0.531512768554687,8.64306799316406,1.25456166992187
4.72922816064483,-0.569819995117188,8.57603034667969,1.1875240234375
4.73141381309709,-0.612915625,8.49941589355469,1.25456166992187
4.73359946554935,-0.622492431640625,8.3892826171875,1.23540805664062
4.7357851180016,-0.641646044921875,8.29830295410156,1.21625444335937
4.73796899712487,-0.641646044921875,8.26957253417969,1.2641384765625
4.74015287624813,-0.689530078125,8.13070883789062,1.27371528320312
4.7423367553714,-0.684741674804688,8.07803640136719,1.24019645996094
4.74451574202504,-0.67037646484375,8.01099875488281,1.35990654296875
4.74669472867869,-0.713472094726562,7.97269152832031,1.39342536621094
4.74887371533233,-0.7278373046875,7.8529814453125,1.44609780273437
4.75105221869605,-0.70868369140625,7.78594379882812,1.39821376953125
4.75323072205976,-0.732625708007812,7.72848295898437,1.43652099609375
4.75540922542347,-0.761356127929687,7.67102211914062,1.48919343261719
4.75759661311879,-0.737414111328125,7.58961926269531,1.49877023925781
4.7597840008141,-0.723048901367187,7.55131203613281,1.55144267578125
4.76197138850941,-0.7278373046875,7.51779321289062,1.59932670898438
4.76416348790177,-0.689530078125,7.47948598632812,1.69509477539062
4.76635558729413,-0.675164868164063,7.46512077636719,1.71903679199219
4.7685476866865,-0.67037646484375,7.47469758300781,1.762132421875
4.77081011984622,-0.67037646484375,7.49863959960937,1.84353527832031
4.77307255300594,-0.579396801757812,7.50821640625,1.89141931152344
4.77533498616566,-0.55545478515625,7.46033237304687,1.90578452148437
4.77760354584448,-0.526724365234375,7.5465236328125,2.02549460449219
4.7798721055233,-0.44053310546875,7.51779321289062,2.07337863769531
4.78214066520212,-0.397437475585937,7.51779321289062,1.99197578125
4.78441258013268,-0.339976635742188,7.59919606933594,1.96324536132812
4.78668449506323,-0.28730419921875,7.59919606933594,2.00634099121094
4.78895640999379,-0.244208569335937,7.63271489257812,1.87226569824219
4.79108024213355,-0.148440502929687,7.64229169921875,1.77649763183594
4.7932040742733,-0.124498486328125,7.64229169921875,1.80522805175781
4.79532790641306,-0.0143652099609375,7.69496413574219,1.73340200195312
4.79745232742,-0.028730419921875,7.6997525390625,1.76692082519531
4.79957674842694,0.028730419921875,7.71890615234375,1.73819040527344
4.80170116943389,0.09576806640625,7.72369455566406,1.77649763183594
4.8038256446943,0.086191259765625,7.75242497558594,1.81480485839844
4.80595011995472,0.119710083007812,7.67102211914062,1.82438166503906
4.80807459521514,0.119710083007812,7.738059765625,1.84353527832031
4.81019867409969,0.110133276367187,7.69496413574219,1.81959326171875
4.81232275298423,0.076614453125,7.6997525390625,1.79565124511719
4.81444683186878,0.129286889648437,7.6997525390625,1.76692082519531
4.81984896706843,0.028730419921875,8.16901606445312,1.7238251953125
4.82525110226809,0.0047884033203125,8.17380446777344,1.81480485839844
4.83065323746774,0.009576806640625,8.25520732421875,1.92014973144531
4.83282305396894,0.0383072265625,8.3126681640625,2.04464821777344
4.83499287047013,0.0335188232421875,8.38449421386719,2.1452046875
4.83716268697133,0.0239420166015625,8.41322463378906,2.26491477050781
4.83929881722035,0.105344873046875,8.32224497070312,2.37983645019531
4.84143494746937,0.100556469726563,8.34618698730469,2.4516625
4.8435710777184,0.15322890625,8.37012900390625,2.59531459960937
4.84568205525746,0.158017309570312,8.33182177734375,2.57137258300781
4.84779303279652,0.21068974609375,8.39407102050781,2.75333190917969
4.84990401033558,0.229843359375,8.37970581054688,2.86825358886719
4.85201349883384,0.301669409179687,8.42758984375,2.93050283203125
4.85412298733211,0.368707055664062,8.37970581054688,3.08852014160156
4.85623247583037,0.359130249023437,8.33661018066406,3.09809694824219
4.85840928062638,0.450109912109375,8.37970581054688,3.1794998046875
4.86058608542239,0.483628735351562,8.37491740722656,3.14598098144531
4.86276289021839,0.4979939453125,8.29830295410156,3.05978972167969
4.86494037806562,0.560243188476563,8.26957253417969,3.04542451171875
4.86711786591284,0.63206923828125,8.3126681640625,2.98317526855469
4.86929535376006,0.665588061523437,8.24563051757812,2.82036955566406
4.8714728043894,0.6512228515625,8.21690009765625,2.6431986328125
4.87365025501874,0.660799658203125,8.24563051757812,2.58573779296875
4.87582770564809,0.656011254882812,8.197746484375,2.47560451660156
4.87801602867326,0.699106884765625,8.197746484375,2.41814367675781
4.88020435169843,0.641646044921875,8.24563051757812,2.528276953125
4.88239267472361,0.617704028320312,8.20732329101562,2.46123930664062
4.88457760538767,0.565031591796875,8.16901606445312,2.55221896972656
4.88676253605173,0.603338818359375,8.21690009765625,2.61925661621094
4.88894746671579,0.608127221679687,8.14507404785156,2.68629426269531
4.89112891658559,0.5746083984375,8.14986245117187,2.69108266601562
4.89331036645538,0.603338818359375,8.11155522460937,2.71502468261719
4.89549181632517,0.584185205078125,8.10197841796875,2.81558115234375
4.89767250783993,0.588973608398437,8.12592043457031,2.84909997558594
4.89985319935468,0.598550415039062,8.14986245117187,2.76769711914062
4.90203389086944,0.565031591796875,8.08761320800781,2.69587106933594
4.90421374167239,0.560243188476563,8.09719001464844,2.82036955566406
4.90639359247534,0.531512768554687,8.07324799804687,2.82515795898437
4.90857344327829,0.507570751953125,8.09240161132812,2.92571442871094
4.91069237817413,0.445321508789062,8.02536396484375,2.88261879882812
4.91281131306997,0.464475122070312,8.05409438476562,2.96402165527344
4.9149302479658,0.411802685546875,8.0062103515625,2.97838686523437
4.91704824058733,0.40222587890625,7.97269152832031,2.90656081542969
4.91916623320886,0.397437475585937,7.95353791503906,2.88740720214844
4.92128422583039,0.349553442382812,7.93438430175781,2.82994636230469
4.92346823917674,0.301669409179687,7.98226833496094,2.90177241210937
4.92565225252309,0.32561142578125,7.97269152832031,2.74854350585938
4.92783626586945,0.229843359375,7.99184514160156,2.681505859375
4.93002496714983,0.258573779296875,7.97269152832031,2.77248552246094
4.93221366843021,0.17238251953125,8.03494077148437,2.88740720214844
4.93440236971059,0.143652099609375,8.10197841796875,2.99275207519531
4.93659152823924,0.05746083984375,8.18338127441406,3.03584770507812
4.93878068676788,0.0239420166015625,8.26478413085937,3.19386501464844
4.94096984529652,0.05746083984375,8.39885942382812,3.30399829101562
4.94308975458472,-0.067037646484375,8.47068547363281,3.21301862792969
4.94520966387291,-0.0622492431640625,8.55687673339844,3.37582434082031
4.94732957316111,-0.0622492431640625,8.657433203125,3.447650390625
4.94944871942847,-0.0383072265625,8.76277807617187,3.49553442382812
4.95156786569583,0.0143652099609375,8.80108530273437,3.50989963378906
4.95368701196318,0.0239420166015625,8.83939252929687,3.64876333007812
4.95587059149878,0.067037646484375,8.93516059570312,3.72537778320312
4.95805417103437,0.110133276367187,8.95431420898437,3.73974299316406
4.96023775056996,0.205901342773437,9.05008227539062,3.88339509277344
4.96242433835208,0.3064578125,9.117119921875,3.97916315917969
4.9646109261342,0.320823022460937,9.10754311523437,4.02704719238281
4.96679751391631,0.383072265625,9.117119921875,3.96958635253906
4.96898679071753,0.407014282226562,9.16500395507812,3.93606752929687
4.97117606751875,0.416591088867187,9.14585034179687,3.84029946289062
4.97336534431996,0.426167895507812,9.13148513183594,3.75889660644531
4.97548955894669,0.430956298828125,9.08360109863281,3.59130249023437
4.97761377357343,0.469263525390625,9.06444748535156,3.56736047363281
4.97973798820017,0.47884033203125,8.89685336914062,3.57693728027344
4.9818620075144,0.464475122070312,8.95910261230469,3.76847341308594
4.98398602682864,0.526724365234375,8.90164177246094,4.01268198242188
4.98611004614287,0.545877978515625,8.78193168945312,4.15633408203125
4.98829288023575,0.541089575195312,8.7723548828125,4.30956298828125
4.99047571432864,0.565031591796875,8.69095202636719,4.61602080078125
4.99265854842152,0.560243188476563,8.63827958984375,4.48673391113281
4.99484298646405,0.569819995117188,8.52814631347656,4.40054265136719
4.99702742450659,0.569819995117188,8.47547387695312,4.51546433105469
4.99921186254912,0.536301171875,8.44195505371094,4.5585599609375
5.00139663077829,0.9576806640625,8.42280144042969,4.64953962402344
5.00358139900746,0.110133276367187,8.21690009765625,4.27604416503906
5.00576616723662,0.296881005859375,8.00142194824219,3.87860668945312
5.00788132435468,0.416591088867187,8.02536396484375,3.99831677246094
5.00999648147273,0.488417138671875,7.967903125,4.40054265136719
5.01211163859079,0.699106884765625,7.78115539550781,4.64475122070312
5.01422188045277,0.464475122070312,7.61834968261719,4.88417138671875
5.01633212231475,0.339976635742188,7.57046564941406,5.08049592285156
5.01844236417673,0.36391865234375,7.64708010253906,5.37258852539062
5.02062098700659,0.3447650390625,7.75721337890625,5.592855078125
5.02279960983645,0.311246215820312,7.71890615234375,5.57370146484375
5.02497823266632,0.220266552734375,7.60398447265625,5.516240625
5.02715755048315,0.138863696289063,7.61356127929687,5.54018264160156
5.02933686829999,0.143652099609375,7.68059892578125,5.53539423828125
5.03151618611683,0.0909796630859375,7.82903942871094,5.66946953125
5.03369534866024,0.0814028564453125,8.0062103515625,5.84185205078125
5.03587451120364,0.0430956298828125,8.12592043457031,5.98071574707031
5.03805367374705,0.0239420166015625,8.25520732421875,6.13873305664062
5.04024210929392,-0.0143652099609375,8.30787976074219,6.35421120605469
5.0424305448408,-0.0430956298828125,8.45153186035156,6.44519086914062
5.04461898038767,-0.119710083007812,8.41322463378906,6.29196196289062
5.04673198136423,-0.158017309570312,8.56166513671875,6.16267507324219
5.04884498234079,-0.1149216796875,8.6191259765625,5.98550415039062
5.05095798331736,-0.167594116210937,8.70531723632812,5.87537087402344
5.05307048733211,-0.244208569335937,8.82023891601562,5.61679709472656
5.05518299134687,-0.229843359375,8.97346782226562,5.46356818847656
5.05729549536162,-0.234631762695312,8.89685336914062,5.41089575195312
5.0594078948842,-0.162805712890625,9.07402429199219,5.63595070800781
5.06152029440677,-0.162805712890625,9.20331118164062,5.56891306152344
5.06363269392934,-0.162805712890625,9.37090529785156,5.49229860839844
5.06574506100833,-0.100556469726563,9.41878933105469,5.57848986816406
5.06785742808732,0.009576806640625,9.41878933105469,5.63595070800781
5.06996979516632,-0.0239420166015625,9.37569370117187,5.73650717773437
5.07208200198055,0.0047884033203125,9.34217487792969,5.74129558105469
5.07419420879479,0.105344873046875,9.40921252441406,5.84185205078125
5.07630641560902,0.119710083007812,9.43315454101563,5.746083984375
5.07848384139027,0.13407529296875,9.55765302734375,5.516240625
5.08066126717152,0.17238251953125,9.52892260742187,5.44441457519531
5.08283869295276,0.239420166015625,9.576806640625,5.57370146484375
5.0850918889163,0.244208569335937,9.49061538085937,5.55933625488281
5.08734508487984,0.258573779296875,9.44751975097656,5.50666381835937
5.08959828084338,0.311246215820312,9.45230815429687,5.43004936523437
5.09182391880996,0.330399829101562,9.35175168457031,5.37737692871094
5.09404955677654,0.282515795898438,9.37569370117187,5.34864650878906
5.09627519474312,0.272938989257812,9.40442412109375,5.17626398925781
5.09847209990805,0.28730419921875,9.21767639160156,5.13795676269531
5.10066900507298,0.272938989257812,9.20331118164062,5.133168359375
5.10286591023791,0.277727392578125,9.17936916503906,4.96557424316406
5.10506409762941,0.2681505859375,9.03571706542969,5.1714755859375
5.1072622850209,0.339976635742188,8.97346782226562,5.48272180175781
5.10946047241239,0.320823022460937,8.93994899902344,5.4779333984375
5.11165963897055,0.3064578125,8.91600698242187,5.64073911132812
5.11385880552871,0.383072265625,8.91121857910156,5.7843912109375
5.11605797208687,0.416591088867187,8.82502731933594,5.85142885742187
5.11825718410944,0.392649072265625,8.80587370605469,5.85142885742187
5.12045639613201,0.4213794921875,8.87769975585937,5.75087238769531
5.12265560815458,0.493205541992187,8.83460412597656,5.88494768066406
5.12470486423097,0.44053310546875,8.76277807617187,5.84185205078125
5.12675412030736,0.560243188476563,8.63349118652344,5.90888969726563
5.12880337638375,0.569819995117188,8.71010563964844,5.97113894042969
5.13504015785077,1.22104284667969,8.78193168945312,6.06690700683594
5.14127693931778,1.24498486328125,8.76277807617187,6.13394465332031
5.1475137207848,1.23540805664062,8.86333454589844,6.22971271972656
5.14961210218671,1.302445703125,9.03571706542969,6.31590397949219
5.15171048358862,1.28329208984375,9.03571706542969,6.358999609375
5.15380886499053,1.29765729980469,9.04529387207031,6.33984599609375
5.15590757929174,1.27371528320312,9.10275471191406,6.28717355957031
5.15800629359296,1.20667763671875,9.13148513183594,6.11000263671875
5.16010500789417,1.27371528320312,9.15063874511719,6.03338818359375
5.1622037505157,1.24498486328125,9.21767639160156,5.79396801757812
5.16430249313723,1.24498486328125,9.23683000488281,5.86579406738281
5.16640123575875,1.23540805664062,9.22246479492187,5.94240852050781
5.16848309642498,1.24977326660156,9.21288798828125,6.03338818359375
5.17056495709122,1.22583125,9.32302126464844,6.27280834960937
5.17264681775745,1.17794721679687,9.37569370117187,6.30153876953125
5.174774695915,1.13006318359375,9.35175168457031,6.37815322265625
5.17690257407255,1.11569797363281,9.28471403808594,6.63672700195312
5.17903045223011,1.09654436035156,9.21767639160156,6.92403120117187
5.18114269496014,1.05823713378906,9.28471403808594,6.93839641113281
5.18325493769018,1.01992990722656,9.25119521484375,6.86178195800781
5.18536718042021,1.02471831054687,9.21288798828125,6.83783994140625
5.1874768770348,1.03908352050781,9.2320416015625,6.74686027832031
5.18958657364938,0.97683427734375,9.20809958496094,6.7037646484375
5.19169627026396,1.05823713378906,9.19852277832031,6.665457421875
5.19380436336291,1.02950671386719,9.21288798828125,6.50265170898437
5.19591245646187,1.06302553710937,9.05487067871094,6.61278498535156
5.19802054956083,1.16358200683594,9.06923588867187,6.73728347167969
5.20012446199572,1.19231242675781,9.05965908203125,6.89051237792969
5.20222837443062,1.20667763671875,8.90643017578125,6.89051237792969
5.20433228686551,1.25935007324219,8.9255837890625,7.09162531738281
5.20644118562853,1.32159931640625,8.94473740234375,7.15866296386719
5.20855008439156,1.39342536621094,8.88248815917969,7.16823977050781
5.21065898315458,1.43173259277344,8.84418093261719,7.13950935058594
5.21284402384468,1.4939818359375,8.9255837890625,7.06768330078125
5.21502906453478,1.48440502929687,8.90164177246094,6.92881960449219
5.21721410522489,1.58017309570312,8.95431420898437,6.9336080078125
5.21940011347142,1.63284553222656,8.83939252929687,7.08204851074219
5.22158612171794,1.67115275878906,8.89685336914062,7.19697019042969
5.22377212996447,1.71903679199219,8.90164177246094,7.21133540039062
5.22595886130128,1.79086284179687,8.89206496582031,7.10599052734375
5.22814559263808,1.78128603515625,8.8872765625,7.2400658203125
5.23033232397488,1.76692082519531,9.02614025878906,7.26400783691406
5.23258979619711,1.77170922851562,8.91600698242187,7.32625708007812
5.23484726841933,1.73340200195312,8.85375773925781,7.47469758300781
5.23710474064155,1.61369191894531,9.21767639160156,7.33583388671875
5.23921990090631,1.66636435546875,8.98783303222656,7.0485296875
5.24133506117107,1.52750065917969,8.78193168945312,7.42202514648437
5.24345022143583,1.5705962890625,8.83939252929687,7.68538732910156
5.24556471384034,1.49877023925781,8.89685336914062,7.58004245605469
5.24767920624485,1.42694418945312,8.9255837890625,7.36935270996094
5.24979369864937,1.41257897949219,8.86333454589844,7.32146867675781
5.25191383764676,1.36948334960938,8.74362446289062,7.44596716308594
5.25403397664416,1.302445703125,8.80108530273437,7.60877287597656
5.25615411564156,1.26892687988281,8.83939252929687,7.64229169921875
5.26039270353218,0.97683427734375,8.96867941894531,7.76200178222656
5.2646312914228,0.93852705078125,8.97346782226562,7.72848295898437
5.26886987931343,0.876277807617187,8.94473740234375,7.89607707519531
5.27098902948704,0.895431420898437,8.9255837890625,8.03015236816406
5.27310817966065,0.9576806640625,8.95910261230469,7.99184514160156
5.27522732983427,0.914585034179687,8.963891015625,8.06845959472656
5.27734636021621,0.895431420898437,8.963891015625,8.18816967773437
5.27946539059815,0.952892260742187,8.99262143554687,8.02057556152344
5.2815844209801,1.00077629394531,9.02614025878906,7.92001909179687
5.28583992504911,1.16837041015625,8.82981572265625,7.49385119628906
5.29009542911812,1.19710083007812,8.86333454589844,7.584830859375
5.29435093318713,1.1875240234375,8.85854614257812,7.61834968261719
5.29646156741022,1.23061965332031,8.7723548828125,7.66623371582031
5.29857220163331,1.28329208984375,8.71968244628906,7.967903125
5.3006828358564,1.2641384765625,8.74362446289062,7.91523068847656
5.30279028073487,1.26892687988281,8.71489404296875,7.78115539550781
5.30489772561334,1.31202250976562,8.66701000976562,7.83382783203125
5.30700517049181,1.39821376953125,8.69095202636719,8.00142194824219
5.30911086971057,1.40300217285156,8.73404765625,7.891288671875
5.31121656892932,1.39821376953125,8.57124194335938,7.891288671875
5.31332226814806,1.43652099609375,8.657433203125,8.06845959472656
5.31542782847793,1.455674609375,8.64306799316406,8.11634362792969
5.31753338880779,1.4939818359375,8.61433757324219,8.13070883789062
5.31963894913765,1.45088620605469,8.64306799316406,8.27914934082031
5.32174922941109,1.52750065917969,8.65264479980469,8.44674345703125
5.32385950968452,1.49877023925781,8.67658681640625,8.42758984375
5.32596978995796,1.58974990234375,8.71489404296875,8.657433203125
5.32807682554824,1.57538469238281,8.71489404296875,8.72447084960938
5.33018386113852,1.64242233886719,8.72447084960938,8.80587370605469
5.33229089672879,1.62805712890625,8.70531723632812,8.70052883300781
5.33439770206734,1.70945998535156,8.75798967285156,8.65264479980469
5.33650450740588,1.69988317871094,8.78672009277344,8.6191259765625
5.33861131274442,1.77170922851562,8.80587370605469,8.51378110351562
5.34071472105605,1.78607443847656,8.82981572265625,8.45153186035156
5.34281812936769,1.84832368164062,8.86812294921875,8.37970581054688
5.34492153767932,1.89141931152344,8.94952580566406,8.45153186035156
5.34702415313071,1.92972653808594,9.04050546875,8.60954916992188
5.3491267685821,1.94409174804687,9.09317790527344,8.58560715332031
5.35122938403349,1.88663090820312,9.12669672851562,8.80587370605469
5.35333867103436,1.94409174804687,9.193734375,8.98304462890625
5.35544795803523,1.92014973144531,9.193734375,9.00698664550781
5.35755724503609,1.92972653808594,9.21767639160156,9.08838950195312
5.35974317060033,1.90099611816406,9.25598361816406,9.01656345214844
5.36192909616457,1.85790048828125,9.24640681152344,8.8872765625
5.3641150217288,1.83395847167969,9.29429084472656,8.73404765625
5.36630542092585,1.77170922851562,9.30386765136719,8.64785639648438
5.3684958201229,1.762132421875,9.36132849121094,8.6191259765625
5.37068621931994,1.75734401855469,9.34217487792969,8.52814631347656
5.37287714347359,1.71903679199219,9.37090529785156,8.49462749023438
5.37506806762723,1.65199914550781,9.39005891113281,8.50899270019531
5.37725899178088,1.58496149902344,9.44751975097656,8.47068547363281
5.37944977921578,1.58496149902344,9.48103857421875,8.59997236328125
5.38164056665067,1.5322890625,9.51934580078125,8.62870278320312
5.38383135408557,1.48919343261719,9.55765302734375,8.80108530273437
5.38595368372966,1.41257897949219,9.59117185058594,8.92079538574219
5.38807601337376,1.40779057617187,9.63426748046875,8.9255837890625
5.39019834301786,1.31681091308594,9.64384428710937,8.86333454589844
5.39224278616022,1.29765729980469,9.64384428710937,8.85375773925781
5.39428722930258,1.302445703125,9.70130512695312,8.74841286621094
5.39633167244495,1.18273562011719,9.730035546875,8.59997236328125
5.39837421790935,1.17315881347656,9.70130512695312,8.45153186035156
5.40041676337376,1.16837041015625,9.71567033691406,8.44195505371094
5.40245930883817,1.149216796875,9.75397756347656,8.43716665039062
5.40663215036378,1.13485158691406,9.8449572265625,9.05965908203125
5.41080499188938,1.15879360351562,9.82580361328125,8.93516059570312
5.41497783341499,1.23540805664062,9.85932243652344,8.81545051269531
5.41708208927437,1.30723410644531,9.83059201660156,8.70531723632812
5.41918634513374,1.41257897949219,9.84974562988281,8.59039555664062
5.42129060099312,1.47003981933594,9.81143840332031,8.5425115234375
5.42339478046361,1.55144267578125,9.82101520996094,8.48983908691406
5.4254989599341,1.6472107421875,9.86889924316406,8.56166513671875
5.42760313940458,1.70945998535156,9.89284125976562,8.64306799316406
5.42971075984729,1.77170922851562,9.97424411621094,8.72925925292969
5.43181838029,1.87226569824219,9.94551369628906,8.79629689941406
5.43392600073271,1.90099611816406,9.98860932617187,8.9255837890625
5.43596436743193,1.92014973144531,10.0460701660156,9.01656345214844
5.43800273413114,2.02070620117187,10.1035310058594,8.92079538574219
5.44004110083036,2.08774384765625,10.1657802490234,8.93037219238281
5.44207250697185,2.08774384765625,10.1849338623047,8.82502731933594
5.44410391311335,2.11168586425781,10.1945106689453,8.82502731933594
5.44613531925484,2.09732065429687,10.2471831054687,8.76277807617187
5.44816396378609,2.1452046875,10.2854903320312,8.71489404296875
5.45019260831734,2.1835119140625,10.3621047851562,8.71010563964844
5.45222125284859,2.14999309082031,10.4339308349609,8.66701000976562
5.45424765247967,2.13562788085937,10.4913916748047,8.70531723632812
5.45627405211075,2.05901342773437,10.6015249511719,8.67179841308594
5.45830045174183,2.09732065429687,10.6685625976562,8.68137521972656
5.46032466029217,2.00634099121094,10.7164466308594,8.75320126953125
5.46234886884252,1.93930334472656,10.7834842773437,8.74362446289062
5.46437307739287,1.88663090820312,10.87925234375,8.77714328613281
5.46639616126874,1.97761057128906,10.955866796875,8.83460412597656
5.46841924514461,1.87226569824219,10.9750204101562,8.88248815917969
5.47044232902048,1.79086284179687,11.0133276367187,8.97825622558594
5.47253372539634,1.79565124511719,11.0803652832031,8.99262143554687
5.47462512177221,1.762132421875,11.1330377197266,9.08360109863281
5.47671651814808,1.68072956542969,11.1282493164062,9.05008227539062
5.47880860636422,1.64242233886719,11.1761333496094,9.117119921875
5.48090069458037,1.53707746582031,11.2383825927734,8.95431420898437
5.48299278279651,1.50355864257812,11.2479593994141,8.9255837890625
5.4850645640872,1.45088620605469,11.2575362060547,8.93516059570312
5.48713634537789,1.42694418945312,11.262324609375,8.90643017578125
5.48920812666858,1.3407529296875,11.3389390625,8.98783303222656
5.49125215204564,1.33596452636719,11.4394955322266,9.09317790527344
5.49329617742271,1.32159931640625,11.4347071289062,9.22725319824219
5.49534020279977,1.31202250976562,11.4778027587891,9.32780966796875
5.49737710904977,1.35511813964844,11.5256867919922,9.2320416015625
5.49941401529977,1.39821376953125,11.5352635986328,9.24640681152344
5.50145092154977,1.4173673828125,11.5831476318359,9.24640681152344
5.50355721082928,1.47003981933594,11.5975128417969,9.270348828125
5.50566350010879,1.48919343261719,11.6262432617187,9.18894597167969
5.50776978938831,1.51313544921875,11.6549736816406,9.04529387207031
5.50987670996122,1.54665427246094,11.7411649414062,8.96867941894531
5.51198363053414,1.64242233886719,11.7842605712891,8.8489693359375
5.51409055110706,1.7238251953125,11.9327010742188,8.8489693359375
5.51619758116348,1.76692082519531,12.0093155273437,8.84418093261719
5.5183046112199,1.84832368164062,12.028469140625,8.87769975585937
5.52041164127633,1.92014973144531,12.0428343505859,8.810662109375
5.52255693191218,2.01591779785156,12.0955067871094,8.65264479980469
5.52470222254803,2.08774384765625,12.1338140136719,8.66701000976562
5.52684751318388,2.13562788085937,12.1529676269531,8.63349118652344
5.52896224023466,2.19787712402344,12.2104284667969,8.48505068359375
5.53107696728544,2.25533796386719,12.1912748535156,8.34139858398438
5.53319169433622,2.26970317382813,12.2343704833984,8.197746484375
5.53530735769343,2.35110603027344,12.2439472900391,8.07803640136719
5.53742302105063,2.29843359375,12.2487356933594,8.0828248046875
5.53953868440784,2.34631762695312,12.2822545166016,8.00142194824219
5.54161773697945,2.35110603027344,12.2774661132812,8.06845959472656
5.54369678955107,2.38941325683594,12.3205617431641,7.95353791503906
5.54577584212268,2.39420166015625,12.3014081298828,7.79073220214844
5.54781849810141,2.43250888671875,12.2822545166016,7.67581052246094
5.54986115408015,2.38462485351562,12.2918313232422,7.49385119628906
5.55190381005888,2.37983645019531,12.3253501464844,7.38371791992187
5.55394608458145,2.32237561035156,12.3732341796875,7.32146867675781
5.55598835910402,2.28406838378906,12.4690022460937,7.14908615722656
5.55803063362659,2.25533796386719,12.4977326660156,7.07726010742187
5.56007286409534,2.13083947753906,12.6174427490234,6.94797321777344
5.56211509456409,2.05422502441406,12.6701151855469,6.78995590820312
5.56415732503284,1.97761057128906,12.6988456054687,6.76122548828125
5.56634088378935,1.86747729492187,12.7323644287109,6.69897624511719
5.56852444254586,1.72861359863281,12.7323644287109,6.49786330566406
5.57070800130237,1.62326872558594,12.7658832519531,6.45955607910156
5.5728589204647,1.51792385253906,12.7371528320312,6.20098229980469
5.57500983962703,1.44130939941406,12.6796919921875,6.10042583007812
5.57716075878936,1.30723410644531,12.6940572021484,5.95677373046875
5.57927454671253,1.21146604003906,12.6749035888672,5.68383474121094
5.58138833463571,1.07739074707031,12.71799921875,5.46356818847656
5.58350212255889,0.909796630859375,12.7610948486328,5.39174213867187
5.58557798768475,0.828393774414062,12.8568629150391,5.23851323242187
5.58765385281062,0.723048901367187,12.947842578125,5.02303508300781
5.58972971793649,0.641646044921875,12.8233440917969,4.96078583984375
5.59177029123293,0.550666381835937,12.8999585449219,4.85544096679687
5.59381086452937,0.507570751953125,13.0148802246094,4.77882651367187
5.59585143782581,0.488417138671875,13.2112047607422,4.73573088378906
5.59788975434056,0.411802685546875,13.2399351806641,4.77882651367187
5.59992807085532,0.349553442382812,13.1968395507812,4.77403811035156
5.60196638737008,0.282515795898438,13.1920511474609,4.64475122070312
5.60400574593127,0.205901342773437,13.1824743408203,4.61123239746094
5.60604510449247,0.181959326171875,13.1202250976562,4.37660063476562
5.60808446305367,0.119710083007812,13.1154366943359,4.2521021484375
5.61327057741999,0.105344873046875,12.5887123291016,2.71023627929688
5.61845669178631,0.119710083007812,12.4546370361328,2.47560451660156
5.62364280615263,0.215478149414062,12.3014081298828,2.32716401367187
5.62573314708145,0.3064578125,12.1386024169922,2.2601263671875
5.62782348801028,0.373495458984375,11.9949503173828,2.21224233398438
5.6299138289391,0.426167895507812,11.9135474609375,2.06380183105469
5.63198417095299,0.550666381835937,11.6645504882812,1.9536685546875
5.63405451296687,0.689530078125,11.3724578857422,1.88184250488281
5.63612485498076,0.780509741210937,11.2096521728516,1.76692082519531
5.63824178607885,0.871489404296875,10.9750204101562,1.66157595214844
5.64035871717694,0.93852705078125,10.7356002441406,1.5322890625
5.64247564827503,1.02950671386719,10.5967365478516,1.45088620605469
5.64458613460316,1.14442839355469,10.3812583984375,1.43173259277344
5.64669662093128,1.16358200683594,10.26633671875,1.48440502929687
5.6488071072594,1.15400520019531,10.1274730224609,1.51313544921875
5.65091759554065,1.16358200683594,9.99339772949219,1.48440502929687
5.6530280838219,1.14442839355469,9.84016882324219,1.45088620605469
