timestamp,accel_x (m/s2),accel_y (m/s2),accel_z (m/s2)
0.00270663020833339,-0.612915625,8.93994899902344,0.32561142578125
0.00541326041666679,-0.196324536132812,10.0077629394531,-0.411802685546875
0.00811989062500018,-0.1915361328125,10.0029745361328,-0.430956298828125
0.0135480726996526,-0.158017309570312,10.0556469726563,-0.445321508789062
0.0189762547743051,-0.177170922851562,10.0077629394531,-0.387860668945312
0.0244044368489575,-0.167594116210937,9.9981861328125,-0.445321508789062
0.029834979492185,-0.220266552734375,9.97424411621094,-0.445321508789062
0.0352655221354124,-0.21068974609375,10.0221281494141,-0.464475122070312
0.0406960647786399,-0.21068974609375,9.98860932617187,-0.450109912109375
0.0461876169704792,-0.177170922851562,10.0269165527344,-0.44053310546875
0.0516791691623186,-0.17238251953125,10.0029745361328,-0.426167895507812
0.0571707213541579,-0.205901342773437,10.0077629394531,-0.368707055664062
0.0626676034071079,-0.234631762695312,9.99339772949219,-0.445321508789062
0.068164485460058,-0.21068974609375,10.0173397460938,-0.407014282226562
0.073661367513008,-0.21068974609375,10.0460701660156,-0.450109912109375
0.0791610273437359,-0.215478149414062,10.0029745361328,-0.4213794921875
0.0846606871744638,-0.253785375976562,10.0125513427734,-0.430956298828125
0.0901603470051917,-0.220266552734375,9.9981861328125,-0.411802685546875
0.0956619277343584,-0.215478149414062,10.0221281494141,-0.4213794921875
0.101163508463525,-0.220266552734375,10.036493359375,-0.40222587890625
0.106665089192692,-0.1915361328125,9.97424411621094,-0.40222587890625
0.112171311197899,-0.21068974609375,9.99339772949219,-0.454898315429687
0.117677533203106,-0.229843359375,9.98860932617187,-0.416591088867187
0.123183755208313,-0.167594116210937,9.9981861328125,-0.435744702148437
0.128753497178798,-0.220266552734375,9.97424411621094,-0.445321508789062
0.134323239149283,-0.181959326171875,9.96945571289062,-0.4213794921875
0.139892981119768,-0.167594116210937,9.94551369628906,-0.392649072265625
0.145466884657093,-0.21068974609375,9.97424411621094,-0.40222587890625
0.151040788194418,-0.225054956054687,9.98382092285156,-0.36391865234375
0.156614691731743,-0.21068974609375,9.95509050292969,-0.426167895507812
0.16219149077688,-0.196324536132812,9.95987890625,-0.445321508789062
0.167768289822018,-0.229843359375,9.95987890625,-0.40222587890625
0.173345088867155,-0.239420166015625,9.9215716796875,-0.392649072265625
0.178923770724792,-0.244208569335937,9.97424411621094,-0.387860668945312
0.18450245258243,-0.220266552734375,9.95509050292969,-0.416591088867187
0.190081134440067,-0.215478149414062,9.96466730957031,-0.368707055664062
0.195662032660551,-0.229843359375,9.98382092285156,-0.335188232421875
0.201242930881036,-0.205901342773437,9.98860932617187,-0.383072265625
0.20682382910152,-0.28730419921875,9.95987890625,-0.359130249023437
0.212471535807248,-0.220266552734375,9.95509050292969,-0.397437475585937
0.218119242512975,-0.201112939453125,9.95987890625,-0.354341845703125
0.223766949218703,-0.205901342773437,9.95987890625,-0.411802685546875
0.229422284396654,-0.239420166015625,9.99339772949219,-0.36391865234375
0.235077619574605,-0.1915361328125,9.95987890625,-0.387860668945312
0.240732954752556,-0.234631762695312,9.98860932617187,-0.4213794921875
0.246391777018179,-0.229843359375,10.0125513427734,-0.45968671875
0.252050599283802,-0.205901342773437,9.9981861328125,-0.40222587890625
0.257709421549425,-0.225054956054687,9.96466730957031,-0.450109912109375
0.263370958441784,-0.220266552734375,9.93593688964844,-0.4213794921875
0.269032495334143,-0.201112939453125,9.99339772949219,-0.387860668945312
0.274694032226503,-0.205901342773437,9.99339772949219,-0.373495458984375
0.280357311631883,-0.215478149414062,10.0077629394531,-0.435744702148437
0.286020591037263,-0.21068974609375,10.0173397460938,-0.430956298828125
0.291683870442643,-0.201112939453125,10.0125513427734,-0.430956298828125
0.297409298611045,-0.239420166015625,9.98860932617187,-0.383072265625
0.303134726779446,-0.229843359375,10.0125513427734,-0.445321508789062
0.308860154947848,-0.21068974609375,9.96945571289062,-0.387860668945312
0.314591111762083,-0.229843359375,9.9981861328125,-0.430956298828125
0.320322068576318,-0.215478149414062,10.0029745361328,-0.435744702148437
0.326053025390554,-0.21068974609375,9.98860932617187,-0.383072265625
0.331857371527705,-0.205901342773437,9.97903251953125,-0.426167895507812
0.337661717664857,-0.162805712890625,9.96466730957031,-0.4213794921875
0.343466063802008,-0.196324536132812,9.96466730957031,-0.40222587890625
0.349278410590203,-0.220266552734375,10.0125513427734,-0.397437475585937
0.355090757378398,-0.215478149414062,9.98860932617187,-0.368707055664062
0.360903104166592,-0.239420166015625,9.96466730957031,-0.368707055664062
0.366719940646626,-0.181959326171875,9.97424411621094,-0.430956298828125
0.372536777126661,-0.225054956054687,9.93114848632812,-0.36391865234375
0.378353613606695,-0.234631762695312,9.9215716796875,-0.416591088867187
0.384174898762944,-0.220266552734375,9.97424411621094,-0.430956298828125
0.389996183919193,-0.220266552734375,9.92636008300781,-0.378283862304687
0.395817469075443,-0.234631762695312,9.94072529296875,-0.335188232421875
0.401643895290719,-0.225054956054687,9.93114848632812,-0.383072265625
0.407470321505996,-0.24899697265625,9.93593688964844,-0.3447650390625
0.413296747721272,-0.239420166015625,9.94072529296875,-0.383072265625
0.419125108506863,-0.239420166015625,9.94551369628906,-0.359130249023437
0.424953469292453,-0.239420166015625,9.96945571289062,-0.36391865234375
0.430781830078043,-0.258573779296875,9.96945571289062,-0.36391865234375
0.43661288487405,-0.244208569335937,9.94072529296875,-0.387860668945312
0.442443939670058,-0.234631762695312,9.98860932617187,-0.416591088867187
0.448274994466065,-0.253785375976562,9.95987890625,-0.373495458984375
0.457087736056774,-0.244208569335937,9.98382092285156,-0.383072265625
0.465900477647484,-0.272938989257812,9.9981861328125,-0.36391865234375
0.474713219238193,-0.225054956054687,9.98860932617187,-0.359130249023437
0.480599518391838,-0.234631762695312,9.98860932617187,-0.411802685546875
0.486485817545482,-0.196324536132812,9.97903251953125,-0.445321508789062
0.492372116699126,-0.229843359375,10.0029745361328,-0.378283862304687
0.498259952311106,-0.234631762695312,9.9981861328125,-0.416591088867187
0.504147787923085,-0.244208569335937,10.0077629394531,-0.383072265625
0.510035623535064,-0.229843359375,9.96466730957031,-0.387860668945312
0.515926107584542,-0.258573779296875,9.95509050292969,-0.454898315429687
0.52181659163402,-0.2681505859375,9.97424411621094,-0.378283862304687
0.527707075683498,-0.239420166015625,9.96945571289062,-0.392649072265625
0.533599215006413,-0.229843359375,9.94072529296875,-0.354341845703125
0.539491354329327,-0.244208569335937,9.95987890625,-0.359130249023437
0.545383493652242,-0.244208569335937,9.98860932617187,-0.411802685546875
0.551343198079324,-0.205901342773437,9.98860932617187,-0.383072265625
0.557302902506406,-0.186747729492187,9.9981861328125,-0.368707055664062
0.563262606933488,-0.229843359375,9.98860932617187,-0.397437475585937
0.569224633843209,-0.229843359375,9.98382092285156,-0.397437475585937
0.57518666075293,-0.196324536132812,9.99339772949219,-0.411802685546875
0.581148687662651,-0.229843359375,9.94072529296875,-0.430956298828125
0.587112340440428,-0.220266552734375,10.0029745361328,-0.32561142578125
0.593075993218206,-0.148440502929687,9.97903251953125,-0.435744702148437
0.599039645995983,-0.17238251953125,9.99339772949219,-0.407014282226562
0.605004869737301,-0.17238251953125,10.0125513427734,-0.44053310546875
0.610970093478619,-0.177170922851562,10.0077629394531,-0.383072265625
0.616935317219937,-0.15322890625,9.98382092285156,-0.407014282226562
0.622902251356222,-0.15322890625,9.99339772949219,-0.4213794921875
0.628869185492506,-0.186747729492187,10.0077629394531,-0.392649072265625
0.63483611962879,-0.15322890625,10.036493359375,-0.445321508789062
0.640877302462991,-0.143652099609375,10.0556469726563,-0.339976635742188
0.646918485297191,-0.196324536132812,10.0173397460938,-0.378283862304687
0.652959668131391,-0.186747729492187,10.0412817626953,-0.349553442382812
0.65900653141264,-0.158017309570312,10.0317049560547,-0.416591088867187
0.665053394693889,-0.196324536132812,9.98860932617187,-0.373495458984375
0.671100257975137,-0.181959326171875,9.98860932617187,-0.354341845703125
0.677149103678262,-0.177170922851562,10.0173397460938,-0.32561142578125
0.683197949381386,-0.13407529296875,10.0269165527344,-0.397437475585937
0.689246795084511,-0.162805712890625,9.97424411621094,-0.411802685546875
0.695297165418712,-0.162805712890625,9.99339772949219,-0.416591088867187
0.701347535752912,-0.186747729492187,9.96945571289062,-0.354341845703125
0.707397906087113,-0.196324536132812,9.98860932617187,-0.359130249023437
0.713449727267669,-0.186747729492187,10.0029745361328,-0.296881005859375
0.719501548448225,-0.167594116210937,10.0029745361328,-0.311246215820312
0.725553369628781,-0.196324536132812,10.0317049560547,-0.397437475585937
0.731670150336246,-0.201112939453125,9.97424411621094,-0.397437475585937
0.737786931043711,-0.186747729492187,9.96466730957031,-0.392649072265625
0.743903711751177,-0.1915361328125,9.92636008300781,-0.47884033203125
0.750027707085376,-0.215478149414062,9.98860932617187,-0.40222587890625
0.756151702419576,-0.148440502929687,9.97903251953125,-0.40222587890625
0.762275697753775,-0.205901342773437,9.96466730957031,-0.435744702148437
0.768402233452559,-0.167594116210937,9.97903251953125,-0.378283862304687
0.774528769151342,-0.186747729492187,9.97424411621094,-0.383072265625
0.780655304850125,-0.229843359375,9.96466730957031,-0.445321508789062
0.786783446017659,-0.21068974609375,9.95987890625,-0.407014282226562
0.792911587185194,-0.15322890625,9.95987890625,-0.411802685546875
0.799039728352728,-0.225054956054687,9.95509050292969,-0.373495458984375
0.805169384277206,-0.167594116210937,9.93593688964844,-0.474051928710937
0.811299040201683,-0.196324536132812,9.94551369628906,-0.387860668945312
0.817428696126161,-0.205901342773437,9.95987890625,-0.426167895507812
0.82362324864352,-0.205901342773437,9.94072529296875,-0.383072265625
0.82981780116088,-0.215478149414062,9.90720646972656,-0.359130249023437
0.836012353678239,-0.17238251953125,9.97424411621094,-0.383072265625
0.842212807996815,-0.215478149414062,9.96945571289062,-0.397437475585937
0.848413262315391,-0.15322890625,9.95987890625,-0.40222587890625
0.854613716633967,-0.186747729492187,9.99339772949219,-0.407014282226562
0.860819374186049,-0.205901342773437,9.97903251953125,-0.368707055664062
0.867025031738132,-0.201112939453125,9.96945571289062,-0.40222587890625
0.873230689290214,-0.225054956054687,9.96945571289062,-0.349553442382812
0.879439461317123,-0.229843359375,10.0077629394531,-0.378283862304687
0.885648233344032,-0.220266552734375,9.99339772949219,-0.36391865234375
0.891857005370941,-0.229843359375,9.98382092285156,-0.445321508789062
0.89806889708101,-0.1915361328125,9.95987890625,-0.373495458984375
0.904280788791078,-0.205901342773437,9.99339772949219,-0.320823022460937
0.910492680501147,-0.21068974609375,9.97903251953125,-0.40222587890625
0.916843074706874,-0.1915361328125,10.0077629394531,-0.36391865234375
0.923193468912602,-0.167594116210937,10.0029745361328,-0.378283862304687
0.929543863118329,-0.21068974609375,10.0269165527344,-0.36391865234375
0.935896584472496,-0.258573779296875,9.98382092285156,-0.383072265625
0.942249305826663,-0.196324536132812,10.0221281494141,-0.330399829101562
0.948602027180829,-0.234631762695312,9.98860932617187,-0.397437475585937
0.954956366482043,-0.215478149414062,9.98382092285156,-0.387860668945312
0.961310705783256,-0.1915361328125,9.99339772949219,-0.392649072265625
0.96766504508447,-0.229843359375,9.99339772949219,-0.383072265625
0.974020931586204,-0.229843359375,9.98860932617187,-0.373495458984375
0.980376818087939,-0.181959326171875,9.99339772949219,-0.368707055664062
0.986732704589674,-0.196324536132812,10.0173397460938,-0.426167895507812
0.993090415527172,-0.177170922851562,10.0029745361328,-0.430956298828125
0.99944812646467,-0.21068974609375,9.9981861328125,-0.411802685546875
1.00580583740217,-0.201112939453125,9.97424411621094,-0.378283862304687
1.01216541726328,-0.181959326171875,9.96466730957031,-0.354341845703125
1.01852499712439,-0.220266552734375,10.0221281494141,-0.36391865234375
1.0248845769855,-0.234631762695312,10.0029745361328,-0.44053310546875
1.03124598193341,-0.1915361328125,10.0173397460938,-0.36391865234375
1.03760738688133,-0.181959326171875,9.97903251953125,-0.316034619140625
1.04396879182924,-0.177170922851562,9.96945571289062,-0.335188232421875
1.05998854286005,-0.17238251953125,9.95509050292969,-0.4213794921875
1.07600829389087,-0.201112939453125,9.96466730957031,-0.368707055664062
1.09202804492169,-0.177170922851562,9.98860932617187,-0.311246215820312
1.09845806336786,-0.196324536132812,9.97424411621094,-0.368707055664062
1.10488808181404,-0.177170922851562,9.96466730957031,-0.354341845703125
1.11131810026022,-0.162805712890625,9.93114848632812,-0.330399829101562
1.1178251624347,-0.186747729492187,9.95987890625,-0.36391865234375
1.12433222460918,-0.186747729492187,9.96945571289062,-0.373495458984375
1.13083928678366,-0.181959326171875,9.93114848632812,-0.339976635742188
1.13742444672289,-0.196324536132812,9.98382092285156,-0.339976635742188
1.14400960666213,-0.186747729492187,9.97903251953125,-0.339976635742188
1.15059476660136,-0.24899697265625,9.96945571289062,-0.3447650390625
1.15718640831143,-0.215478149414062,9.95987890625,-0.316034619140625
1.1637780500215,-0.277727392578125,9.97903251953125,-0.3064578125
1.17036969173157,-0.225054956054687,9.97424411621094,-0.397437475585937
1.17696730881056,-0.234631762695312,10.0269165527344,-0.32561142578125
1.18356492588955,-0.21068974609375,9.98860932617187,-0.36391865234375
1.19016254296855,-0.215478149414062,9.96945571289062,-0.36391865234375
1.1967629439017,-0.229843359375,9.9981861328125,-0.359130249023437
1.20336334483486,-0.234631762695312,9.9981861328125,-0.407014282226562
1.20996374576802,-0.21068974609375,9.98860932617187,-0.397437475585937
1.21656612141907,-0.205901342773437,10.0460701660156,-0.330399829101562
1.22316849707011,-0.220266552734375,9.97903251953125,-0.397437475585937
1.22977087272115,-0.225054956054687,10.0077629394531,-0.40222587890625
1.23637481944424,-0.229843359375,9.98382092285156,-0.378283862304687
1.24297876616733,-0.244208569335937,10.0221281494141,-0.387860668945312
1.24958271289042,-0.177170922851562,10.0317049560547,-0.378283862304687
1.25949044748243,-0.239420166015625,9.9981861328125,-0.392649072265625
1.26939818207445,-0.196324536132812,9.9981861328125,-0.392649072265625
1.27930591666646,-0.205901342773437,9.96945571289062,-0.378283862304687
1.29923633713087,-0.229843359375,10.0269165527344,-0.383072265625
1.31916675759527,-0.186747729492187,10.0029745361328,-0.368707055664062
1.33909717805968,-0.215478149414062,10.0173397460938,-0.339976635742188
1.34576218326801,-0.177170922851562,9.98860932617187,-0.339976635742188
1.35242718847635,-0.177170922851562,9.99339772949219,-0.383072265625
1.35909219368468,-0.234631762695312,10.036493359375,-0.335188232421875
1.36575880577235,-0.21068974609375,9.98382092285156,-0.316034619140625
1.37242541786003,-0.148440502929687,9.95509050292969,-0.339976635742188
1.3790920299477,-0.1915361328125,10.0173397460938,-0.354341845703125
1.38576036718728,-0.225054956054687,9.96945571289062,-0.435744702148437
1.39242870442686,-0.17238251953125,10.0077629394531,-0.349553442382812
1.39909704166644,-0.196324536132812,9.9981861328125,-0.316034619140625
1.40576686458311,-0.215478149414062,10.0125513427734,-0.359130249023437
1.41243668749978,-0.201112939453125,10.0125513427734,-0.320823022460937
1.41910651041644,-0.167594116210937,9.95030209960937,-0.378283862304687
1.42592542968727,-0.21068974609375,9.99339772949219,-0.397437475585937
1.43274434895811,-0.21068974609375,10.0029745361328,-0.411802685546875
1.43956326822894,-0.167594116210937,9.97424411621094,-0.430956298828125
1.44638469325064,-0.17238251953125,10.0077629394531,-0.373495458984375
1.45320611827234,-0.186747729492187,10.0077629394531,-0.36391865234375
1.46002754329404,-0.215478149414062,10.0029745361328,-0.450109912109375
1.46685162326366,-0.234631762695312,10.0029745361328,-0.354341845703125
1.47367570323327,-0.205901342773437,9.95030209960937,-0.387860668945312
1.48049978320289,-0.229843359375,9.94551369628906,-0.416591088867187
1.4873258849824,-0.225054956054687,9.94551369628906,-0.392649072265625
1.49415198676191,-0.196324536132812,9.96466730957031,-0.411802685546875
1.50097808854142,-0.205901342773437,9.99339772949219,-0.387860668945312
1.50780590093292,-0.21068974609375,9.95030209960937,-0.416591088867187
1.51463371332441,-0.220266552734375,9.97903251953125,-0.383072265625
1.5214615257159,-0.24899697265625,9.96945571289062,-0.407014282226562
1.52829082931833,-0.277727392578125,9.96945571289062,-0.373495458984375
1.53512013292076,-0.234631762695312,9.99339772949219,-0.330399829101562
1.54194943652319,-0.225054956054687,9.94072529296875,-0.296881005859375
1.54878043164038,-0.239420166015625,9.98382092285156,-0.373495458984375
1.55561142675756,-0.24899697265625,9.97424411621094,-0.354341845703125
1.56244242187475,-0.225054956054687,9.9981861328125,-0.354341845703125
1.57963726657418,-0.17238251953125,10.0029745361328,-0.359130249023437
1.59683211127362,-0.21068974609375,9.98860932617187,-0.416591088867187
1.61402695597305,-0.177170922851562,9.97903251953125,-0.368707055664062
1.6209292880043,-0.215478149414062,9.93114848632812,-0.4213794921875
1.62783162003555,-0.205901342773437,9.96466730957031,-0.368707055664062
1.6347339520668,-0.196324536132812,9.96945571289062,-0.359130249023437
1.64163799970135,-0.177170922851562,9.96945571289062,-0.411802685546875
1.6485420473359,-0.15322890625,9.97424411621094,-0.488417138671875
1.65544609497044,-0.177170922851562,9.95987890625,-0.407014282226562
1.66235166484892,-0.225054956054687,9.95030209960937,-0.407014282226562
1.66925723472739,-0.205901342773437,9.96945571289062,-0.407014282226562
1.67616280460586,-0.220266552734375,9.95030209960937,-0.407014282226562
1.68306982511367,-0.186747729492187,9.94072529296875,-0.445321508789062
1.68997684562148,-0.21068974609375,9.93114848632812,-0.464475122070312
1.69688386612929,-0.234631762695312,9.94551369628906,-0.450109912109375
1.70385962079509,-0.263362182617187,9.96466730957031,-0.378283862304687
1.71083537546089,-0.234631762695312,9.95509050292969,-0.40222587890625
1.71781113012668,-0.205901342773437,9.93114848632812,-0.416591088867187
1.7247927085772,-0.21068974609375,9.93114848632812,-0.4213794921875
1.73177428702773,-0.239420166015625,9.90241806640625,-0.44053310546875
1.73875586547825,-0.244208569335937,9.91678327636719,-0.36391865234375
1.74574360082981,-0.234631762695312,9.87368764648437,-0.426167895507812
1.75273133618137,-0.253785375976562,9.91199487304687,-0.4213794921875
1.75971907153293,-0.258573779296875,9.94551369628906,-0.407014282226562
1.76670965790446,-0.220266552734375,9.95987890625,-0.407014282226562
1.77370024427599,-0.229843359375,9.94072529296875,-0.407014282226562
1.78069083064752,-0.263362182617187,9.89762966308594,-0.445321508789062
1.78768310842529,-0.225054956054687,9.96466730957031,-0.430956298828125
1.79467538620307,-0.196324536132812,9.90720646972656,-0.416591088867187
1.80166766398084,-0.17238251953125,9.96466730957031,-0.435744702148437
1.80872012817355,-0.234631762695312,9.96466730957031,-0.4213794921875
1.81577259236626,-0.225054956054687,9.97424411621094,-0.44053310546875
1.82282505655897,-0.229843359375,9.98860932617187,-0.416591088867187
1.82995602596001,-0.205901342773437,10.0125513427734,-0.373495458984375
1.83708699536105,-0.220266552734375,10.036493359375,-0.450109912109375
1.84421796476209,-0.225054956054687,9.99339772949219,-0.445321508789062
1.85135128247043,-0.196324536132812,10.0221281494141,-0.430956298828125
1.85848460017876,-0.196324536132812,10.0125513427734,-0.4213794921875
1.86561791788709,-0.229843359375,10.0269165527344,-0.45968671875
1.87275282250949,-0.177170922851562,10.0269165527344,-0.387860668945312
1.87988772713188,-0.196324536132812,10.036493359375,-0.411802685546875
1.88702263175428,-0.234631762695312,10.0029745361328,-0.387860668945312
1.89415903637667,-0.220266552734375,10.0317049560547,-0.383072265625
1.90129544099907,-0.1915361328125,10.0604353759766,-0.387860668945312
1.90843184562146,-0.201112939453125,10.0077629394531,-0.4213794921875
1.91557015486625,-0.15322890625,10.0460701660156,-0.383072265625
1.92270846411104,-0.162805712890625,10.036493359375,-0.36391865234375
1.92984677335583,-0.220266552734375,10.0029745361328,-0.426167895507812
1.93698665128552,-0.201112939453125,9.98860932617187,-0.411802685546875
1.94412652921521,-0.220266552734375,10.0077629394531,-0.411802685546875
1.95126640714489,-0.201112939453125,9.97424411621094,-0.416591088867187
1.95840774818222,-0.229843359375,9.98860932617187,-0.349553442382812
1.96554908921954,-0.234631762695312,9.95987890625,-0.426167895507812
1.97269043025687,-0.239420166015625,10.0029745361328,-0.397437475585937
1.98707432131589,-0.253785375976562,9.96466730957031,-0.320823022460937
2.00145821237492,-0.272938989257812,9.96945571289062,-0.3447650390625
2.01584210343395,-0.2681505859375,9.95509050292969,-0.296881005859375
2.02305357598169,-0.215478149414062,9.97424411621094,-0.2681505859375
2.03026504852943,-0.253785375976562,9.96945571289062,-0.32561142578125
2.03747652107717,-0.234631762695312,9.96945571289062,-0.296881005859375
2.04468954505721,-0.277727392578125,9.99339772949219,-0.320823022460937
2.05190256903724,-0.229843359375,9.96945571289062,-0.339976635742188
2.05911559301727,-0.220266552734375,9.93593688964844,-0.28730419921875
2.06633047062144,-0.220266552734375,9.97903251953125,-0.320823022460937
2.07354534822561,-0.205901342773437,10.0317049560547,-0.354341845703125
2.08076022582977,-0.181959326171875,10.0221281494141,-0.373495458984375
2.08797762046953,-0.225054956054687,10.0317049560547,-0.430956298828125
2.09519501510928,-0.162805712890625,10.0317049560547,-0.416591088867187
2.10241240974904,-0.201112939453125,10.0173397460938,-0.40222587890625
2.10970105265268,-0.205901342773437,10.0556469726563,-0.450109912109375
2.11698969555633,-0.201112939453125,10.0795889892578,-0.450109912109375
2.12427833845997,-0.201112939453125,10.036493359375,-0.445321508789062
2.13157121096431,-0.15322890625,10.0939541992188,-0.493205541992187
2.13886408346865,-0.201112939453125,10.1035310058594,-0.565031591796875
2.14615695597299,-0.234631762695312,10.0652237792969,-0.588973608398437
2.15345144609886,-0.196324536132812,10.0843773925781,-0.627280834960937
2.16074593622473,-0.162805712890625,10.0125513427734,-0.6512228515625
2.16804042635059,-0.229843359375,10.0317049560547,-0.689530078125
2.1753364201657,-0.205901342773437,10.0269165527344,-0.627280834960937
2.1826324139808,-0.201112939453125,10.0221281494141,-0.63206923828125
2.1899284077959,-0.253785375976562,9.9981861328125,-0.646434448242187
2.19722599416743,-0.205901342773437,10.0125513427734,-0.579396801757812
2.20452358053896,-0.239420166015625,10.0125513427734,-0.612915625
2.21182116691048,-0.220266552734375,9.9981861328125,-0.603338818359375
2.21918809931065,-0.17238251953125,9.96945571289062,-0.569819995117188
2.22655503171083,-0.229843359375,9.98382092285156,-0.584185205078125
2.233921964111,-0.1915361328125,9.95030209960937,-0.512359155273437
2.24129476836447,-0.225054956054687,9.94551369628906,-0.426167895507812
2.24866757261794,-0.167594116210937,9.94551369628906,-0.464475122070312
2.25604037687141,-0.181959326171875,9.94072529296875,-0.378283862304687
2.26341643622471,-0.167594116210937,9.91678327636719,-0.378283862304687
2.27079249557801,-0.201112939453125,9.93593688964844,-0.397437475585937
2.27816855493131,-0.186747729492187,9.89762966308594,-0.411802685546875
2.28554771139832,-0.177170922851562,9.88805285644531,-0.330399829101562
2.29292686786533,-0.196324536132812,9.90720646972656,-0.311246215820312
2.30030602433234,-0.234631762695312,9.88805285644531,-0.378283862304687
2.30768674720561,-0.196324536132812,9.86889924316406,-0.354341845703125
2.31506747007887,-0.21068974609375,9.883264453125,-0.349553442382812
2.32244819295213,-0.24899697265625,9.94072529296875,-0.36391865234375
2.32989291875508,-0.239420166015625,9.95509050292969,-0.411802685546875
2.33733764455803,-0.234631762695312,9.93114848632812,-0.464475122070312
2.34478237036098,-0.21068974609375,9.94072529296875,-0.450109912109375
2.35223032977938,-0.258573779296875,9.95509050292969,-0.493205541992187
2.35967828919779,-0.2681505859375,9.93593688964844,-0.450109912109375
2.36712624861619,-0.229843359375,9.98860932617187,-0.387860668945312
2.37457648624639,-0.24899697265625,9.96945571289062,-0.469263525390625
2.3820267238766,-0.220266552734375,9.98382092285156,-0.435744702148437
2.38947696150681,-0.272938989257812,9.96945571289062,-0.354341845703125
2.3969297270233,-0.239420166015625,9.97903251953125,-0.4213794921875
2.40438249253979,-0.296881005859375,10.0125513427734,-0.454898315429687
2.41183525805629,-0.244208569335937,9.95509050292969,-0.330399829101562
2.41928973017,-0.234631762695312,10.0317049560547,-0.426167895507812
2.42674420228371,-0.229843359375,9.96945571289062,-0.407014282226562
2.43419867439743,-0.205901342773437,9.97903251953125,-0.430956298828125
2.44172067776114,-0.234631762695312,10.0029745361328,-0.426167895507812
2.44924268112486,-0.215478149414062,9.97903251953125,-0.430956298828125
2.45676468448857,-0.186747729492187,9.96945571289062,-0.507570751953125
2.46428948353371,-0.21068974609375,9.97424411621094,-0.40222587890625
2.47181428257885,-0.205901342773437,9.98860932617187,-0.407014282226562
2.47933908162398,-0.205901342773437,9.95987890625,-0.44053310546875
2.48415899091218,-0.229843359375,9.93593688964844,-0.47884033203125
2.48897890020037,-0.186747729492187,9.95509050292969,-0.397437475585937
2.49379880948856,-0.225054956054687,9.93593688964844,-0.493205541992187
2.49589925935835,-0.239420166015625,9.95030209960937,-0.483628735351562
2.49799970922815,-0.225054956054687,9.97903251953125,-0.531512768554687
2.50010015909794,-0.205901342773437,9.96945571289062,-0.521935961914062
2.50219978116825,-0.1915361328125,9.95987890625,-0.531512768554687
2.50429940323856,-0.229843359375,9.95030209960937,-0.47884033203125
2.50639902530888,-0.201112939453125,9.97424411621094,-0.44053310546875
2.50850758205801,-0.244208569335937,9.97903251953125,-0.44053310546875
2.51061613880714,-0.215478149414062,9.95987890625,-0.493205541992187
2.51272469555628,-0.201112939453125,9.97424411621094,-0.474051928710937
2.5148303770884,-0.1915361328125,9.96945571289062,-0.454898315429687
2.51693605862051,-0.277727392578125,9.99339772949219,-0.545877978515625
2.51904174015263,-0.277727392578125,9.95509050292969,-0.4979939453125
2.5211462755259,-0.24899697265625,9.92636008300781,-0.541089575195312
2.52325081089916,-0.220266552734375,9.97424411621094,-0.44053310546875
2.52535534627242,-0.21068974609375,9.94072529296875,-0.507570751953125
2.52745954842086,-0.244208569335937,9.95030209960937,-0.493205541992187
2.5295637505693,-0.229843359375,9.94072529296875,-0.4979939453125
2.53166795271774,-0.196324536132812,9.95509050292969,-0.450109912109375
2.53376900566913,-0.215478149414062,9.94072529296875,-0.483628735351562
2.53587005862051,-0.24899697265625,9.93593688964844,-0.430956298828125
2.5379711115719,-0.201112939453125,9.91678327636719,-0.426167895507812
2.5400804349226,-0.196324536132812,9.93114848632812,-0.488417138671875
2.54218975827329,-0.21068974609375,9.89762966308594,-0.44053310546875
2.54429908162399,-0.205901342773437,9.92636008300781,-0.359130249023437
2.54640796107277,-0.2681505859375,9.92636008300781,-0.416591088867187
2.54851684052156,-0.234631762695312,9.90241806640625,-0.47884033203125
2.55062571997034,-0.24899697265625,9.93114848632812,-0.426167895507812
2.55273327378979,-0.244208569335937,9.95987890625,-0.387860668945312
2.55484082760923,-0.277727392578125,9.9215716796875,-0.387860668945312
2.55694838142868,-0.272938989257812,9.89762966308594,-0.36391865234375
2.55905554277851,-0.24899697265625,9.93114848632812,-0.36391865234375
2.56116270412833,-0.239420166015625,9.9215716796875,-0.383072265625
2.56326986547816,-0.234631762695312,9.95509050292969,-0.368707055664062
2.56537629863788,-0.220266552734375,9.94551369628906,-0.397437475585937
2.5674827317976,-0.234631762695312,9.96466730957031,-0.32561142578125
2.56958916495732,-0.2681505859375,9.94551369628906,-0.397437475585937
2.57170025002677,-0.24899697265625,9.91678327636719,-0.397437475585937
2.57381133509621,-0.21068974609375,9.95987890625,-0.411802685546875
2.57592242016566,-0.201112939453125,9.95987890625,-0.387860668945312
2.57803123613788,-0.205901342773437,9.98860932617187,-0.383072265625
2.5801400521101,-0.215478149414062,9.94551369628906,-0.387860668945312
2.58224886808232,-0.258573779296875,9.97424411621094,-0.469263525390625
2.58435956567347,-0.244208569335937,9.96945571289062,-0.359130249023437
2.58647026326461,-0.234631762695312,9.96466730957031,-0.493205541992187
2.58858096085576,-0.229843359375,9.98860932617187,-0.430956298828125
2.59069182836878,-0.205901342773437,9.9981861328125,-0.44053310546875
2.59280269588181,-0.205901342773437,9.96466730957031,-0.454898315429687
2.59491356339483,-0.196324536132812,9.98860932617187,-0.435744702148437
2.59702470477938,-0.229843359375,9.96945571289062,-0.407014282226562
2.59913584616393,-0.215478149414062,9.96466730957031,-0.4213794921875
2.60124698754847,-0.201112939453125,10.0269165527344,-0.469263525390625
2.60335639434101,-0.21068974609375,9.98382092285156,-0.426167895507812
2.60546580113354,-0.215478149414062,9.97424411621094,-0.483628735351562
2.60757520792608,-0.244208569335937,9.97424411621094,-0.426167895507812
2.60968155753545,-0.205901342773437,9.96466730957031,-0.387860668945312
2.61178790714483,-0.158017309570312,9.97424411621094,-0.435744702148437
2.6138942567542,-0.1915361328125,10.0173397460938,-0.493205541992187
2.61592900556063,-0.181959326171875,9.97903251953125,-0.483628735351562
2.61796375436705,-0.167594116210937,9.94551369628906,-0.545877978515625
2.61999850317347,-0.220266552734375,9.97903251953125,-0.469263525390625
2.62202677530889,-0.201112939453125,9.94551369628906,-0.47884033203125
2.6240550474443,-0.17238251953125,9.99339772949219,-0.44053310546875
2.62608331957972,-0.167594116210937,9.98860932617187,-0.502782348632812
2.62810867059968,-0.220266552734375,9.97903251953125,-0.45968671875
2.63013402161965,-0.17238251953125,9.97903251953125,-0.454898315429687
2.63215937263961,-0.177170922851562,9.97903251953125,-0.45968671875
2.63425079863787,-0.186747729492187,9.98860932617187,-0.512359155273437
2.63634222463614,-0.196324536132812,9.99339772949219,-0.493205541992187
2.6384336506344,-0.229843359375,9.96945571289062,-0.483628735351562
2.64052221096426,-0.229843359375,9.99339772949219,-0.502782348632812
2.64261077129412,-0.21068974609375,9.99339772949219,-0.526724365234375
2.64469933162399,-0.253785375976562,10.0029745361328,-0.488417138671875
2.64678756578197,-0.239420166015625,10.0173397460938,-0.411802685546875
2.64887579993996,-0.205901342773437,9.98860932617187,-0.445321508789062
2.65096403409794,-0.234631762695312,10.0269165527344,-0.474051928710937
2.65305118318648,-0.263362182617187,10.0508585693359,-0.4979939453125
2.65513833227502,-0.277727392578125,10.0460701660156,-0.521935961914062
2.65722548136356,-0.292092602539062,10.0077629394531,-0.426167895507812
2.65927441832103,-0.277727392578125,10.0029745361328,-0.454898315429687
2.6613233552785,-0.229843359375,10.0221281494141,-0.430956298828125
2.66337229223596,-0.258573779296875,10.0125513427734,-0.373495458984375
2.66547752237919,-0.225054956054687,9.96945571289062,-0.454898315429687
2.66758275252242,-0.258573779296875,10.0460701660156,-0.416591088867187
2.66968798266565,-0.215478149414062,10.0317049560547,-0.45968671875
2.67179359963614,-0.24899697265625,10.0029745361328,-0.411802685546875
2.67389921660662,-0.215478149414062,10.0173397460938,-0.435744702148437
2.67600483357711,-0.24899697265625,10.0412817626953,-0.493205541992187
2.67810990942346,-0.229843359375,9.97903251953125,-0.435744702148437
2.68021498526982,-0.239420166015625,9.9981861328125,-0.435744702148437
2.68232006111617,-0.239420166015625,9.98382092285156,-0.45968671875
2.68442522555844,-0.244208569335937,9.96466730957031,-0.407014282226562
2.68653039000072,-0.205901342773437,9.97903251953125,-0.430956298828125
2.68863555444299,-0.234631762695312,9.98860932617187,-0.40222587890625
2.69070759383101,-0.205901342773437,9.95987890625,-0.387860668945312
2.69277963321904,-0.220266552734375,9.95509050292969,-0.373495458984375
2.69485167260706,-0.229843359375,9.96945571289062,-0.397437475585937
2.69696051288484,-0.272938989257812,9.93593688964844,-0.373495458984375
2.69906935316261,-0.1915361328125,9.97424411621094,-0.373495458984375
2.70117819344039,-0.24899697265625,9.91678327636719,-0.426167895507812
2.70328951169126,-0.225054956054687,9.96466730957031,-0.411802685546875
2.70540082994213,-0.225054956054687,10.0029745361328,-0.416591088867187
2.707512148193,-0.201112939453125,9.95987890625,-0.349553442382812
2.70962364580584,-0.215478149414062,9.98382092285156,-0.368707055664062
2.71173514341869,-0.21068974609375,9.94551369628906,-0.416591088867187
2.71384664103154,-0.201112939453125,9.94072529296875,-0.3447650390625
2.71595801087746,-0.21068974609375,9.99339772949219,-0.416591088867187
2.71806938072338,-0.17238251953125,9.97903251953125,-0.36391865234375
2.7201807505693,-0.17238251953125,9.95987890625,-0.416591088867187
2.72225560983579,-0.205901342773437,9.94551369628906,-0.4213794921875
2.72433046910228,-0.158017309570312,9.97424411621094,-0.44053310546875
2.72640532836877,-0.129286889648437,9.94551369628906,-0.392649072265625
2.72858710717737,-0.17238251953125,9.96945571289062,-0.354341845703125
2.73076888598596,-0.162805712890625,9.98382092285156,-0.397437475585937
2.73295066479456,-0.196324536132812,9.94072529296875,-0.378283862304687
2.73513162432147,-0.167594116210937,9.9215716796875,-0.3447650390625
2.73731258384838,-0.162805712890625,9.98860932617187,-0.354341845703125
2.73949354337529,-0.129286889648437,9.90720646972656,-0.359130249023437
2.74167457033926,-0.15322890625,9.96945571289062,-0.411802685546875
2.74385559730324,-0.158017309570312,9.96945571289062,-0.40222587890625
2.74603662426721,-0.17238251953125,9.95987890625,-0.378283862304687
2.74821771785445,-0.167594116210937,9.93593688964844,-0.450109912109375
2.75039881144169,-0.15322890625,9.95987890625,-0.407014282226562
2.75257990502893,-0.138863696289063,9.97903251953125,-0.40222587890625
2.75473111819082,-0.119710083007812,9.93114848632812,-0.435744702148437
2.75688233135272,-0.148440502929687,10.0173397460938,-0.45968671875
2.75903354451461,-0.110133276367187,10.0077629394531,-0.4213794921875
2.76115039618562,-0.15322890625,9.94551369628906,-0.526724365234375
2.76326724785662,-0.162805712890625,9.98860932617187,-0.47884033203125
2.76538409952763,-0.17238251953125,10.0125513427734,-0.47884033203125
2.76750035082971,-0.220266552734375,10.0125513427734,-0.45968671875
2.7696166021318,-0.17238251953125,9.99339772949219,-0.445321508789062
2.77173285343389,-0.205901342773437,9.96945571289062,-0.445321508789062
2.77712510270146,-0.196324536132812,9.98382092285156,-0.454898315429687
2.78251735196904,-0.215478149414062,9.96945571289062,-0.40222587890625
2.78790960123662,-0.2681505859375,9.98382092285156,-0.426167895507812
2.7900216008026,-0.234631762695312,9.95030209960937,-0.387860668945312
2.79213360036857,-0.215478149414062,9.96945571289062,-0.426167895507812
2.79424559993454,-0.215478149414062,9.99339772949219,-0.44053310546875
2.79635348893194,-0.220266552734375,9.9981861328125,-0.392649072265625
2.79846137792934,-0.225054956054687,9.98860932617187,-0.450109912109375
2.80056926692673,-0.215478149414062,9.98382092285156,-0.397437475585937
2.80267345279913,-0.220266552734375,9.95987890625,-0.430956298828125
2.80477763867152,-0.215478149414062,9.95509050292969,-0.450109912109375
2.80688182454392,-0.239420166015625,9.9981861328125,-0.426167895507812
2.80898459407517,-0.186747729492187,9.95509050292969,-0.47884033203125
2.81108736360642,-0.21068974609375,10.0029745361328,-0.474051928710937
2.81319013313767,-0.225054956054687,9.98382092285156,-0.474051928710937
2.8153592726776,-0.239420166015625,10.0173397460938,-0.426167895507812
2.81752841221753,-0.215478149414062,10.0077629394531,-0.4213794921875
2.81969755175746,-0.201112939453125,9.96945571289062,-0.435744702148437
2.8217308039276,-0.201112939453125,9.95509050292969,-0.47884033203125
2.82376405609774,-0.205901342773437,9.97903251953125,-0.426167895507812
2.82579730826787,-0.167594116210937,9.98860932617187,-0.407014282226562
2.82783013335468,-0.21068974609375,9.95030209960937,-0.430956298828125
2.82986295844149,-0.21068974609375,9.98860932617187,-0.483628735351562
2.83189578352829,-0.215478149414062,10.0125513427734,-0.416591088867187
2.83392858257343,-0.201112939453125,9.98860932617187,-0.469263525390625
2.83596138161857,-0.215478149414062,9.98860932617187,-0.488417138671875
2.83799418066371,-0.201112939453125,9.9981861328125,-0.450109912109375
2.84002690299444,-0.1915361328125,10.0173397460938,-0.416591088867187
2.84205962532517,-0.201112939453125,9.98860932617187,-0.416591088867187
2.8440923476559,-0.201112939453125,9.98382092285156,-0.354341845703125
2.84619579231736,-0.201112939453125,9.97424411621094,-0.450109912109375
2.84829923697882,-0.205901342773437,9.95987890625,-0.392649072265625
2.85040268164028,-0.225054956054687,9.98382092285156,-0.387860668945312
2.85250797938333,-0.215478149414062,9.93114848632812,-0.4213794921875
2.85461327712639,-0.167594116210937,9.93114848632812,-0.359130249023437
2.85671857486945,-0.17238251953125,9.94072529296875,-0.387860668945312
2.85882397395799,-0.1915361328125,9.97424411621094,-0.416591088867187
2.86092937304653,-0.196324536132812,9.93593688964844,-0.426167895507812
2.86303477213507,-0.162805712890625,9.97424411621094,-0.407014282226562
2.86511679603373,-0.181959326171875,9.97903251953125,-0.4213794921875
2.86719881993238,-0.186747729492187,9.97424411621094,-0.450109912109375
2.86928084383104,-0.17238251953125,9.94072529296875,-0.430956298828125
2.87133114431389,-0.234631762695312,9.93114848632812,-0.411802685546875
2.87338144479675,-0.186747729492187,9.95509050292969,-0.464475122070312
2.87543174527961,-0.239420166015625,9.95030209960937,-0.407014282226562
2.87754365359124,-0.239420166015625,9.96466730957031,-0.3447650390625
2.87965556190287,-0.181959326171875,9.98382092285156,-0.407014282226562
2.8817674702145,-0.21068974609375,9.93593688964844,-0.407014282226562
2.8838453975691,-0.225054956054687,10.0029745361328,-0.335188232421875
2.8859233249237,-0.225054956054687,9.93114848632812,-0.40222587890625
2.8880012522783,-0.205901342773437,9.9981861328125,-0.426167895507812
2.89000567540113,-0.201112939453125,9.94551369628906,-0.4213794921875
2.89201009852396,-0.196324536132812,9.93114848632812,-0.407014282226562
2.89401452164679,-0.181959326171875,9.95030209960937,-0.426167895507812
2.8959791216902,-0.215478149414062,9.92636008300781,-0.435744702148437
2.8979437217336,-0.215478149414062,9.96945571289062,-0.387860668945312
2.899908321777,-0.201112939453125,9.99339772949219,-0.435744702148437
2.90186821679653,-0.181959326171875,9.98382092285156,-0.426167895507812
2.90382811181606,-0.201112939453125,9.95987890625,-0.4213794921875
2.90578800683559,-0.181959326171875,9.97903251953125,-0.378283862304687
2.9078053646915,-0.17238251953125,9.96945571289062,-0.416591088867187
2.9098227225474,-0.201112939453125,9.95509050292969,-0.397437475585937
2.9118400804033,-0.17238251953125,9.99339772949219,-0.426167895507812
2.91385735856085,-0.220266552734375,9.98860932617187,-0.40222587890625
2.9158746367184,-0.215478149414062,10.0269165527344,-0.368707055664062
2.91789191487596,-0.177170922851562,9.97903251953125,-0.411802685546875
2.91990902050746,-0.148440502929687,9.96945571289062,-0.392649072265625
2.92192612613897,-0.186747729492187,9.99339772949219,-0.450109912109375
2.92394323177048,-0.158017309570312,9.95509050292969,-0.411802685546875
2.92596070111727,-0.196324536132812,9.97903251953125,-0.387860668945312
2.92797817046406,-0.181959326171875,9.98860932617187,-0.36391865234375
2.92999563981085,-0.186747729492187,9.98860932617187,-0.44053310546875
2.93201348703307,-0.201112939453125,9.95030209960937,-0.378283862304687
2.93403133425529,-0.196324536132812,9.95987890625,-0.378283862304687
2.93604918147751,-0.21068974609375,9.96945571289062,-0.4213794921875
2.93812011406215,-0.186747729492187,9.99339772949219,-0.392649072265625
2.94019104664678,-0.234631762695312,10.036493359375,-0.416591088867187
2.94226197923142,-0.220266552734375,9.96945571289062,-0.36391865234375
2.94431262119105,-0.253785375976562,9.99339772949219,-0.416591088867187
2.94636326315069,-0.186747729492187,9.98860932617187,-0.426167895507812
2.94841390511033,-0.158017309570312,9.96945571289062,-0.359130249023437
2.95052304193758,-0.1915361328125,9.99339772949219,-0.368707055664062
2.95263217876484,-0.186747729492187,9.96466730957031,-0.445321508789062
2.9547413155921,-0.186747729492187,9.9981861328125,-0.387860668945312
2.95685120361293,-0.167594116210937,10.0029745361328,-0.469263525390625
2.95896109163377,-0.196324536132812,9.95509050292969,-0.411802685546875
2.9610709796546,-0.138863696289063,9.94072529296875,-0.392649072265625
2.96318089567022,-0.148440502929687,9.96466730957031,-0.36391865234375
2.96529081168585,-0.158017309570312,9.97424411621094,-0.4213794921875
2.96740072770147,-0.1915361328125,9.94551369628906,-0.392649072265625
2.96951050547925,-0.201112939453125,9.95509050292969,-0.435744702148437
2.97162028325703,-0.158017309570312,9.97424411621094,-0.392649072265625
2.97373006103481,-0.181959326171875,9.96945571289062,-0.339976635742188
2.97583983805303,-0.177170922851562,9.96945571289062,-0.383072265625
2.97794961507126,-0.177170922851562,9.97903251953125,-0.430956298828125
2.98005939208949,-0.15322890625,9.95509050292969,-0.416591088867187
2.98202162668151,-0.17238251953125,9.98860932617187,-0.411802685546875
2.98398386127352,-0.143652099609375,9.95509050292969,-0.4979939453125
2.98594609586553,-0.162805712890625,9.95987890625,-0.450109912109375
2.98790727045321,-0.15322890625,9.98382092285156,-0.44053310546875
2.98986844504088,-0.167594116210937,9.97424411621094,-0.4213794921875
2.99182961962855,-0.138863696289063,9.9981861328125,-0.392649072265625
2.99485317827656,-0.1915361328125,10.0029745361328,-0.407014282226562
2.99787673692456,-0.21068974609375,9.98382092285156,-0.397437475585937
3.00090029557257,-0.201112939453125,9.93114848632812,-0.426167895507812
3.00292989740633,-0.186747729492187,10.0125513427734,-0.349553442382812
3.0049594992401,-0.21068974609375,9.9981861328125,-0.36391865234375
3.00698910107387,-0.186747729492187,9.99339772949219,-0.387860668945312
3.00901951085034,-0.186747729492187,9.98382092285156,-0.430956298828125
3.01104992062682,-0.205901342773437,10.0173397460938,-0.36391865234375
3.0130803304033,-0.181959326171875,9.98860932617187,-0.416591088867187
3.01511076014505,-0.15322890625,9.99339772949219,-0.469263525390625
3.0171411898868,-0.196324536132812,9.98382092285156,-0.454898315429687
3.01917161962855,-0.201112939453125,10.0029745361328,-0.450109912109375
3.02119432434047,-0.1915361328125,9.9981861328125,-0.483628735351562
3.02321702905238,-0.162805712890625,9.95987890625,-0.483628735351562
3.0252397337643,-0.215478149414062,10.0029745361328,-0.4979939453125
3.0272303656138,-0.205901342773437,9.9981861328125,-0.51714755859375
3.0292209974633,-0.201112939453125,10.0221281494141,-0.464475122070312
3.0312116293128,-0.229843359375,9.98860932617187,-0.483628735351562
3.03324269148728,-0.181959326171875,10.0029745361328,-0.521935961914062
3.03527375366176,-0.21068974609375,10.0173397460938,-0.445321508789062
3.03730481583623,-0.186747729492187,9.95030209960937,-0.407014282226562
3.03933722436488,-0.167594116210937,9.95987890625,-0.450109912109375
3.04136963289352,-0.225054956054687,9.9981861328125,-0.32561142578125
3.04340204142217,-0.201112939453125,9.98382092285156,-0.430956298828125
3.04543828436922,-0.201112939453125,9.96466730957031,-0.397437475585937
3.04747452731627,-0.148440502929687,9.94551369628906,-0.373495458984375
3.04951077026332,-0.201112939453125,9.94551369628906,-0.407014282226562
3.05154832896557,-0.186747729492187,9.92636008300781,-0.373495458984375
3.05358588766783,-0.1915361328125,9.92636008300781,-0.292092602539062
3.05562344637008,-0.17238251953125,9.93593688964844,-0.40222587890625
3.05766105965133,-0.201112939453125,9.94551369628906,-0.368707055664062
3.05969867293258,-0.215478149414062,9.94551369628906,-0.335188232421875
3.06173628621383,-0.181959326171875,9.96945571289062,-0.349553442382812
3.06376738430411,-0.177170922851562,9.95509050292969,-0.32561142578125
3.06579848239439,-0.162805712890625,9.99339772949219,-0.3447650390625
3.06782958048467,-0.196324536132812,9.96945571289062,-0.368707055664062
3.06985797979022,-0.13407529296875,10.0077629394531,-0.311246215820312
3.07188637909578,-0.162805712890625,10.0029745361328,-0.392649072265625
3.07391477840133,-0.162805712890625,9.97424411621094,-0.3447650390625
3.07593876440393,-0.181959326171875,9.97903251953125,-0.349553442382812
3.07796275040653,-0.143652099609375,10.0317049560547,-0.416591088867187
3.07998673640914,-0.143652099609375,10.0077629394531,-0.330399829101562
3.0820093935272,-0.17238251953125,10.0508585693359,-0.373495458984375
3.08403205064525,-0.143652099609375,10.0269165527344,-0.32561142578125
3.08605470776331,-0.158017309570312,10.0269165527344,-0.354341845703125
3.08807898955584,-0.15322890625,10.0029745361328,-0.44053310546875
3.09010327134838,-0.13407529296875,10.0460701660156,-0.4213794921875
3.09212755314092,-0.15322890625,10.0412817626953,-0.4213794921875
3.09415978165654,-0.167594116210937,9.99339772949219,-0.44053310546875
3.09619201017217,-0.129286889648437,10.0173397460938,-0.493205541992187
3.09822423868779,-0.196324536132812,10.0508585693359,-0.469263525390625
3.10018023434751,-0.158017309570312,10.036493359375,-0.445321508789062
3.10213623000723,-0.167594116210937,10.0317049560547,-0.430956298828125
3.10409222566695,-0.143652099609375,10.0029745361328,-0.411802685546875
3.10604749953848,-0.1915361328125,10.0077629394531,-0.44053310546875
3.10800277341001,-0.158017309570312,10.036493359375,-0.430956298828125
3.10995804728154,-0.167594116210937,10.0269165527344,-0.45968671875
3.11191332039351,-0.21068974609375,10.0221281494141,-0.411802685546875
3.11386859350549,-0.162805712890625,10.0077629394531,-0.435744702148437
3.11582386661747,-0.167594116210937,9.9981861328125,-0.411802685546875
3.11777912204282,-0.205901342773437,10.0173397460938,-0.40222587890625
3.11973437746817,-0.167594116210937,9.97903251953125,-0.383072265625
3.12168963289351,-0.162805712890625,9.98382092285156,-0.416591088867187
3.12371403306712,-0.220266552734375,10.0412817626953,-0.387860668945312
3.12573843324074,-0.158017309570312,10.0173397460938,-0.383072265625
3.12776283341435,-0.181959326171875,9.95030209960937,-0.474051928710937
3.12978819333188,-0.158017309570312,9.9981861328125,-0.426167895507812
3.13181355324942,-0.162805712890625,9.95987890625,-0.430956298828125
3.13383891316695,-0.181959326171875,9.98382092285156,-0.44053310546875
3.13586455574508,-0.215478149414062,9.95987890625,-0.44053310546875
3.1378901983232,-0.181959326171875,9.98860932617187,-0.430956298828125
3.13991584090133,-0.162805712890625,9.93593688964844,-0.416591088867187
3.14190934556713,-0.17238251953125,9.95030209960937,-0.469263525390625
3.14390285023292,-0.225054956054687,9.94072529296875,-0.464475122070312
3.14589635489872,-0.1915361328125,9.9981861328125,-0.416591088867187
3.14785760403067,-0.196324536132812,9.94072529296875,-0.407014282226562
3.14981885316261,-0.225054956054687,9.97903251953125,-0.435744702148437
3.15178010229456,-0.177170922851562,9.96945571289062,-0.483628735351562
3.15388848554108,-0.220266552734375,9.99339772949219,-0.411802685546875
3.15599686878761,-0.167594116210937,9.96945571289062,-0.4213794921875
3.15810525203414,-0.196324536132812,9.95987890625,-0.445321508789062
3.16021910392216,-0.196324536132812,9.97903251953125,-0.4213794921875
3.16233295581018,-0.17238251953125,9.94551369628906,-0.445321508789062
3.1644468076982,-0.162805712890625,9.95030209960937,-0.378283862304687
3.16656232571036,-0.186747729492187,9.95987890625,-0.45968671875
3.16867784372251,-0.201112939453125,9.94551369628906,-0.430956298828125
3.17079336173467,-0.186747729492187,9.98860932617187,-0.445321508789062
3.17290946329717,-0.162805712890625,9.97903251953125,-0.464475122070312
3.17502556485967,-0.201112939453125,9.95030209960937,-0.4979939453125
3.17714166642217,-0.1915361328125,9.95987890625,-0.445321508789062
3.1791880793996,-0.201112939453125,9.99339772949219,-0.545877978515625
3.18123449237703,-0.21068974609375,9.97424411621094,-0.474051928710937
3.18328090535446,-0.17238251953125,10.0029745361328,-0.493205541992187
3.18532505140481,-0.181959326171875,9.96466730957031,-0.483628735351562
3.18736919745516,-0.186747729492187,10.0077629394531,-0.397437475585937
3.1894133435055,-0.158017309570312,9.97424411621094,-0.383072265625
3.19145739580585,-0.162805712890625,9.95987890625,-0.368707055664062
3.1935014481062,-0.13407529296875,9.98382092285156,-0.416591088867187
3.19554550040654,-0.1915361328125,10.0029745361328,-0.349553442382812
3.20085412676288,-0.196324536132812,9.96466730957031,-0.40222587890625
3.20616275311922,-0.162805712890625,9.99339772949219,-0.36391865234375
3.21147137947556,-0.15322890625,9.97903251953125,-0.397437475585937
3.21357912421297,-0.181959326171875,9.99339772949219,-0.40222587890625
3.21568686895039,-0.196324536132812,9.97424411621094,-0.4213794921875
3.2177946136878,-0.181959326171875,10.0077629394531,-0.378283862304687
3.21989939173684,-0.1915361328125,9.97424411621094,-0.4213794921875
3.22200416978589,-0.196324536132812,10.0077629394531,-0.435744702148437
3.22410894783493,-0.186747729492187,9.97424411621094,-0.47884033203125
3.22621209882235,-0.1915361328125,10.036493359375,-0.47884033203125
3.22831524980976,-0.225054956054687,10.0029745361328,-0.454898315429687
3.23041840079718,-0.225054956054687,9.97903251953125,-0.454898315429687
3.23252069615308,-0.181959326171875,10.0556469726563,-0.378283862304687
3.23462299150898,-0.1915361328125,9.98860932617187,-0.416591088867187
3.23672528686489,-0.17238251953125,10.0029745361328,-0.368707055664062
3.23879680015699,-0.167594116210937,9.96466730957031,-0.36391865234375
3.24086831344909,-0.201112939453125,10.0269165527344,-0.378283862304687
3.24293982674119,-0.181959326171875,10.0221281494141,-0.45968671875
3.24497918183016,-0.167594116210937,10.0125513427734,-0.4213794921875
3.24701853691914,-0.15322890625,9.94551369628906,-0.450109912109375
3.24905789200812,-0.186747729492187,9.98382092285156,-0.450109912109375
3.25426280197448,-0.15322890625,9.98860932617187,-0.445321508789062
3.25946771194085,-0.167594116210937,10.036493359375,-0.474051928710937
3.26467262190721,-0.167594116210937,10.0317049560547,-0.464475122070312
3.26677339567023,-0.162805712890625,9.99339772949219,-0.45968671875
3.26887416943325,-0.167594116210937,10.0173397460938,-0.445321508789062
3.27097494319627,-0.162805712890625,10.0173397460938,-0.426167895507812
3.27300973681607,-0.138863696289063,10.0221281494141,-0.426167895507812
3.27504453043586,-0.13407529296875,9.98382092285156,-0.44053310546875
3.27707932405565,-0.158017309570312,10.0604353759766,-0.51714755859375
3.27911287700704,-0.158017309570312,10.0221281494141,-0.469263525390625
3.28114642995843,-0.201112939453125,10.0700121826172,-0.435744702148437
3.28317998290982,-0.143652099609375,10.0843773925781,-0.4979939453125
3.2852139435218,-0.124498486328125,10.0269165527344,-0.383072265625
3.28724790413378,-0.162805712890625,10.0221281494141,-0.521935961914062
3.28928186474575,-0.158017309570312,10.0269165527344,-0.44053310546875
3.2913854873586,-0.205901342773437,10.0125513427734,-0.493205541992187
3.29348910997145,-0.181959326171875,10.0269165527344,-0.45968671875
3.2955927325843,-0.181959326171875,9.98860932617187,-0.445321508789062
3.29769880040114,-0.205901342773437,10.0077629394531,-0.44053310546875
3.29980486821798,-0.196324536132812,10.0221281494141,-0.45968671875
3.30191093603482,-0.186747729492187,10.0173397460938,-0.483628735351562
3.30394899918586,-0.215478149414062,9.99339772949219,-0.45968671875
3.3059870623369,-0.177170922851562,9.97424411621094,-0.512359155273437
3.30802512548794,-0.15322890625,9.96945571289062,-0.44053310546875
3.31006227294888,-0.167594116210937,9.93114848632812,-0.45968671875
3.31209942040981,-0.167594116210937,9.95030209960937,-0.426167895507812
3.31413656787075,-0.1915361328125,9.95030209960937,-0.430956298828125
3.31617357307908,-0.196324536132812,9.97424411621094,-0.51714755859375
3.31821057828742,-0.177170922851562,9.95987890625,-0.474051928710937
3.32024758349575,-0.201112939453125,9.98382092285156,-0.474051928710937
3.32235187049662,-0.17238251953125,9.98382092285156,-0.45968671875
3.32445615749748,-0.167594116210937,9.95509050292969,-0.531512768554687
3.32656044449835,-0.181959326171875,9.95509050292969,-0.392649072265625
3.32866767572665,-0.177170922851562,9.98382092285156,-0.454898315429687
3.33077490695495,-0.17238251953125,9.9981861328125,-0.488417138671875
3.33288213818325,-0.158017309570312,9.9981861328125,-0.445321508789062
3.33499126198967,-0.162805712890625,10.0029745361328,-0.47884033203125
3.33710038579609,-0.15322890625,10.0077629394531,-0.416591088867187
3.33920950960251,-0.181959326171875,10.0412817626953,-0.454898315429687
3.34131742941588,-0.17238251953125,9.99339772949219,-0.435744702148437
3.34342534922925,-0.196324536132812,10.0269165527344,-0.397437475585937
3.34553326904261,-0.167594116210937,10.0412817626953,-0.502782348632812
3.34764138319192,-0.177170922851562,10.0604353759766,-0.45968671875
3.34974949734123,-0.181959326171875,10.0269165527344,-0.454898315429687
3.35185761149053,-0.162805712890625,9.9981861328125,-0.416591088867187
3.35396589501918,-0.13407529296875,10.0077629394531,-0.392649072265625
3.35607417854783,-0.148440502929687,9.97903251953125,-0.392649072265625
3.35818246207647,-0.124498486328125,10.0125513427734,-0.416591088867187
3.36029230235425,-0.15322890625,10.0173397460938,-0.445321508789062
3.36240214263203,-0.220266552734375,10.0173397460938,-0.488417138671875
3.36451198290981,-0.143652099609375,10.0221281494141,-0.416591088867187
3.36655195361294,-0.177170922851562,9.96945571289062,-0.445321508789062
3.36859192431606,-0.13407529296875,9.9981861328125,-0.430956298828125
3.37063189501919,-0.167594116210937,9.96945571289062,-0.416591088867187
3.37267318028395,-0.196324536132812,9.96466730957031,-0.47884033203125
3.3747144655487,-0.148440502929687,9.97424411621094,-0.47884033203125
3.37675575081346,-0.1915361328125,9.97903251953125,-0.450109912109375
3.37988380050964,-0.201112939453125,9.9215716796875,-0.435744702148437
3.38301185020582,-0.186747729492187,9.95030209960937,-0.450109912109375
3.386139899902,-0.177170922851562,9.95987890625,-0.469263525390625
3.38823488541633,-0.1915361328125,9.95030209960937,-0.416591088867187
3.39032987093065,-0.1915361328125,9.93114848632812,-0.349553442382812
3.39242485644497,-0.225054956054687,9.94072529296875,-0.397437475585937
3.39449074527961,-0.162805712890625,9.9215716796875,-0.512359155273437
3.39655663411425,-0.205901342773437,9.91199487304687,-0.45968671875
3.39862252294888,-0.167594116210937,9.91678327636719,-0.469263525390625
3.40065883387553,-0.201112939453125,9.883264453125,-0.45968671875
3.40269514480218,-0.17238251953125,9.91678327636719,-0.426167895507812
3.40473145572883,-0.17238251953125,9.9215716796875,-0.45968671875
3.40676738275791,-0.158017309570312,9.90720646972656,-0.407014282226562
3.40880330978699,-0.158017309570312,9.95509050292969,-0.435744702148437
3.41083923681607,-0.181959326171875,9.91678327636719,-0.47884033203125
3.41294339865418,-0.17238251953125,9.94072529296875,-0.407014282226562
3.41504756049228,-0.13407529296875,9.93114848632812,-0.45968671875
3.41715172233039,-0.148440502929687,9.99339772949219,-0.483628735351562
3.41925682031216,-0.15322890625,9.96945571289062,-0.4213794921875
3.42136191829394,-0.17238251953125,9.99339772949219,-0.44053310546875
3.42346701627571,-0.181959326171875,9.97424411621094,-0.488417138671875
3.42553780913595,-0.15322890625,9.95030209960937,-0.469263525390625
3.42760860199619,-0.15322890625,9.95030209960937,-0.464475122070312
3.42967939485643,-0.15322890625,9.95987890625,-0.47884033203125
3.43171544422709,-0.129286889648437,9.9981861328125,-0.426167895507812
3.43375149359775,-0.143652099609375,9.93593688964844,-0.445321508789062
3.43578754296841,-0.158017309570312,9.9981861328125,-0.454898315429687
3.43782312874315,-0.110133276367187,9.98860932617187,-0.469263525390625
3.43985871451789,-0.15322890625,9.9981861328125,-0.4213794921875
3.44189430029263,-0.138863696289063,9.98382092285156,-0.426167895507812
3.44400005951572,-0.148440502929687,9.99339772949219,-0.435744702148437
3.44610581873881,-0.143652099609375,9.97903251953125,-0.435744702148437
3.4482115779619,-0.167594116210937,9.96945571289062,-0.435744702148437
3.45032014794888,-0.158017309570312,9.95987890625,-0.450109912109375
3.45242871793586,-0.162805712890625,9.97424411621094,-0.474051928710937
3.45453728792284,-0.167594116210937,9.96466730957031,-0.474051928710937
3.4566114224172,-0.167594116210937,9.98382092285156,-0.464475122070312
3.45868555691155,-0.162805712890625,9.97903251953125,-0.411802685546875
3.46075969140591,-0.13407529296875,9.96945571289062,-0.531512768554687
3.46279883284471,-0.158017309570312,9.9981861328125,-0.531512768554687
3.46483797428351,-0.177170922851562,9.96466730957031,-0.507570751953125
3.46687711572232,-0.1915361328125,10.0317049560547,-0.565031591796875
3.46891580598925,-0.15322890625,9.9981861328125,-0.536301171875
3.47095449625617,-0.167594116210937,9.96945571289062,-0.541089575195312
3.4729931865231,-0.167594116210937,9.9981861328125,-0.560243188476563
3.47509895084602,-0.186747729492187,9.97903251953125,-0.550666381835937
3.47720471516893,-0.21068974609375,10.0029745361328,-0.469263525390625
3.47931047949185,-0.17238251953125,10.0077629394531,-0.407014282226562
3.48142004866503,-0.1915361328125,10.0125513427734,-0.469263525390625
3.48352961783821,-0.158017309570312,9.98860932617187,-0.474051928710937
3.48563918701138,-0.186747729492187,9.97424411621094,-0.521935961914062
3.48771766200054,-0.220266552734375,10.0077629394531,-0.507570751953125
3.48979613698969,-0.229843359375,9.96466730957031,-0.483628735351562
3.49187461197883,-0.1915361328125,9.97424411621094,-0.493205541992187
3.49391778228048,-0.201112939453125,9.96466730957031,-0.474051928710937
3.49596095258213,-0.167594116210937,9.99339772949219,-0.521935961914062
3.49800412288378,-0.17238251953125,9.95030209960937,-0.541089575195312
3.50004569308777,-0.148440502929687,10.0221281494141,-0.488417138671875
3.50208726329176,-0.15322890625,10.0029745361328,-0.493205541992187
3.50412883349576,-0.162805712890625,10.0221281494141,-0.526724365234375
3.50623077148404,-0.181959326171875,9.95987890625,-0.502782348632812
3.50833270947232,-0.162805712890625,9.97424411621094,-0.536301171875
3.5104346474606,-0.124498486328125,9.98382092285156,-0.474051928710937
3.51253751529914,-0.13407529296875,9.95509050292969,-0.4979939453125
3.51464038313769,-0.167594116210937,9.98860932617187,-0.469263525390625
3.51674325097623,-0.143652099609375,9.97424411621094,-0.502782348632812
3.51877376508213,-0.13407529296875,9.91678327636719,-0.445321508789062
3.52080427918804,-0.143652099609375,9.94551369628906,-0.430956298828125
3.52283479329394,-0.148440502929687,9.95030209960937,-0.469263525390625
3.52479255501269,-0.129286889648437,9.92636008300781,-0.426167895507812
3.52675031673144,-0.162805712890625,9.93593688964844,-0.512359155273437
3.52870807845019,-0.148440502929687,9.90720646972656,-0.426167895507812
3.53066638302919,-0.158017309570312,9.9215716796875,-0.407014282226562
3.53262468760818,-0.143652099609375,9.90720646972656,-0.507570751953125
3.53458299218717,-0.119710083007812,9.90720646972656,-0.450109912109375
3.53660751622146,-0.15322890625,9.89284125976562,-0.416591088867187
3.53863204025575,-0.143652099609375,9.86889924316406,-0.4979939453125
3.54065656429003,-0.1915361328125,9.91678327636719,-0.488417138671875
3.54275770941807,-0.15322890625,9.92636008300781,-0.507570751953125
3.54485885454611,-0.158017309570312,9.94551369628906,-0.426167895507812
3.54695999967415,-0.17238251953125,9.94072529296875,-0.464475122070312
3.54906442550965,-0.143652099609375,9.95030209960937,-0.454898315429687
3.55116885134515,-0.196324536132812,9.93114848632812,-0.44053310546875
3.55327327718065,-0.1915361328125,9.9215716796875,-0.445321508789062
3.55537637722406,-0.167594116210937,9.98860932617187,-0.450109912109375
3.55747947726746,-0.215478149414062,9.94551369628906,-0.454898315429687
3.55958257731086,-0.181959326171875,9.93114848632812,-0.536301171875
3.56167770905185,-0.177170922851562,9.9981861328125,-0.512359155273437
3.56377284079285,-0.177170922851562,9.97903251953125,-0.493205541992187
3.56586797253384,-0.1915361328125,10.0029745361328,-0.44053310546875
3.56793460063985,-0.186747729492187,10.0077629394531,-0.545877978515625
3.57000122874586,-0.1915361328125,10.0269165527344,-0.541089575195312
3.57206785685187,-0.205901342773437,9.9981861328125,-0.445321508789062
3.57411255064528,-0.181959326171875,10.0125513427734,-0.545877978515625
3.57615724443868,-0.167594116210937,10.0221281494141,-0.51714755859375
3.57820193823208,-0.181959326171875,10.0077629394531,-0.4979939453125
3.58341795396559,-0.205901342773437,9.87368764648437,-0.407014282226562
3.58863396969909,-0.24899697265625,9.93593688964844,-0.36391865234375
3.5938499854326,-0.239420166015625,9.9215716796875,-0.44053310546875
3.59595710815395,-0.239420166015625,9.91199487304687,-0.4213794921875
3.59806423087531,-0.215478149414062,9.89762966308594,-0.464475122070312
3.60017135359666,-0.181959326171875,9.93593688964844,-0.512359155273437
3.60224461168043,-0.167594116210937,9.92636008300781,-0.51714755859375
3.60431786976419,-0.201112939453125,9.92636008300781,-0.435744702148437
3.60639112784796,-0.162805712890625,9.89762966308594,-0.483628735351562
3.60842983721211,-0.220266552734375,9.97424411621094,-0.4979939453125
3.61046854657626,-0.181959326171875,9.95030209960937,-0.4979939453125
3.61250725594041,-0.196324536132812,9.96945571289062,-0.488417138671875
3.61454518752678,-0.21068974609375,9.92636008300781,-0.565031591796875
3.61658311911315,-0.205901342773437,9.97903251953125,-0.45968671875
3.61862105069952,-0.215478149414062,9.95987890625,-0.469263525390625
3.62072641761575,-0.234631762695312,9.98860932617187,-0.541089575195312
3.62283178453199,-0.162805712890625,9.9981861328125,-0.493205541992187
3.62493715144822,-0.215478149414062,9.97903251953125,-0.493205541992187
3.62704671535881,-0.186747729492187,9.9981861328125,-0.454898315429687
3.6291562792694,-0.21068974609375,9.96466730957031,-0.483628735351562
3.63126584317999,-0.244208569335937,9.94551369628906,-0.493205541992187
3.63334377910664,-0.201112939453125,9.96466730957031,-0.531512768554687
3.63542171503329,-0.239420166015625,9.95987890625,-0.474051928710937
3.63749965095994,-0.205901342773437,9.94551369628906,-0.47884033203125
3.63954257272643,-0.186747729492187,9.97424411621094,-0.55545478515625
3.64158549449293,-0.1915361328125,9.9215716796875,-0.469263525390625
3.64362841625942,-0.15322890625,9.96945571289062,-0.51714755859375
3.64567000903286,-0.15322890625,9.96945571289062,-0.502782348632812
3.64771160180629,-0.186747729492187,9.94072529296875,-0.526724365234375
3.64975319457973,-0.162805712890625,9.98382092285156,-0.541089575195312
3.65185472913919,-0.15322890625,9.95030209960937,-0.44053310546875
3.65395626369866,-0.1915361328125,9.95030209960937,-0.579396801757812
3.65605779825812,-0.186747729492187,9.93114848632812,-0.512359155273437
3.65816029413486,-0.119710083007812,9.98860932617187,-0.541089575195312
3.66026279001159,-0.15322890625,9.97424411621094,-0.502782348632812
3.66236528588833,-0.181959326171875,9.96945571289062,-0.55545478515625
3.66443330400899,-0.177170922851562,9.98382092285156,-0.51714755859375
3.66650132212965,-0.181959326171875,9.98382092285156,-0.51714755859375
3.66856934025031,-0.143652099609375,9.98860932617187,-0.545877978515625
3.67060056382887,-0.158017309570312,10.0125513427734,-0.545877978515625
3.67263178740743,-0.1149216796875,9.97903251953125,-0.488417138671875
3.67466301098599,-0.1915361328125,10.036493359375,-0.512359155273437
3.67669084676073,-0.1915361328125,10.0508585693359,-0.4979939453125
3.67871868253547,-0.17238251953125,10.0269165527344,-0.526724365234375
3.68074651831021,-0.21068974609375,10.0029745361328,-0.47884033203125
3.68284188652852,-0.162805712890625,10.0221281494141,-0.464475122070312
3.68493725474684,-0.177170922851562,10.0125513427734,-0.488417138671875
3.68703262296516,-0.167594116210937,10.0556469726563,-0.430956298828125
3.6891282900116,-0.186747729492187,10.0460701660156,-0.474051928710937
3.69122395705804,-0.1915361328125,10.0508585693359,-0.450109912109375
3.69331962410448,-0.201112939453125,10.0221281494141,-0.45968671875
3.69538513636576,-0.186747729492187,10.036493359375,-0.426167895507812
3.69745064862705,-0.205901342773437,9.9981861328125,-0.445321508789062
3.69951616088833,-0.201112939453125,10.0125513427734,-0.445321508789062
3.70155163316481,-0.21068974609375,9.99339772949219,-0.474051928710937
3.70358710544128,-0.177170922851562,10.0173397460938,-0.483628735351562
3.70562257771776,-0.205901342773437,10.0317049560547,-0.541089575195312
3.70765759849684,-0.21068974609375,10.0125513427734,-0.4979939453125
3.70969261927592,-0.229843359375,9.98860932617187,-0.565031591796875
3.711727640055,-0.258573779296875,10.0173397460938,-0.5746083984375
3.71383198706021,-0.17238251953125,9.98382092285156,-0.521935961914062
3.71593633406541,-0.196324536132812,9.97424411621094,-0.526724365234375
3.71804068107062,-0.186747729492187,10.036493359375,-0.541089575195312
3.72014583330586,-0.21068974609375,9.99339772949219,-0.526724365234375
3.7222509855411,-0.215478149414062,9.98382092285156,-0.507570751953125
3.72435613777635,-0.244208569335937,9.99339772949219,-0.541089575195312
3.72642708276332,-0.21068974609375,10.0317049560547,-0.531512768554687
3.7284980277503,-0.205901342773437,10.0412817626953,-0.584185205078125
3.73056897273728,-0.205901342773437,9.9981861328125,-0.502782348632812
3.73260511260273,-0.229843359375,10.0077629394531,-0.526724365234375
3.73464125246819,-0.201112939453125,10.0173397460938,-0.565031591796875
3.73667739233364,-0.215478149414062,10.0029745361328,-0.488417138671875
3.73867592336662,-0.21068974609375,10.0029745361328,-0.502782348632812
3.74067445439961,-0.186747729492187,9.96945571289062,-0.541089575195312
3.7426729854326,-0.215478149414062,9.96945571289062,-0.47884033203125
3.74470409280022,-0.201112939453125,9.95987890625,-0.526724365234375
3.74673520016784,-0.225054956054687,9.96945571289062,-0.521935961914062
3.74876630753546,-0.21068974609375,9.97424411621094,-0.526724365234375
3.75079889515482,-0.21068974609375,9.96945571289062,-0.526724365234375
3.75283148277418,-0.229843359375,9.98382092285156,-0.584185205078125
3.75486407039354,-0.186747729492187,9.94551369628906,-0.5746083984375
3.75689677726203,-0.196324536132812,9.93114848632812,-0.55545478515625
3.75892948413052,-0.186747729492187,9.9215716796875,-0.526724365234375
3.76096219099901,-0.196324536132812,9.95509050292969,-0.521935961914062
3.76299487052375,-0.15322890625,9.94072529296875,-0.4979939453125
3.76502755004849,-0.201112939453125,9.94551369628906,-0.493205541992187
3.76706022957323,-0.196324536132812,9.96945571289062,-0.526724365234375
3.76909288837314,-0.186747729492187,9.93593688964844,-0.464475122070312
3.77112554717305,-0.205901342773437,9.96466730957031,-0.493205541992187
3.77315820597297,-0.201112939453125,9.95987890625,-0.493205541992187
3.77525854049988,-0.1915361328125,9.99339772949219,-0.483628735351562
3.77735887502679,-0.181959326171875,9.93593688964844,-0.502782348632812
3.77945920955369,-0.177170922851562,9.96945571289062,-0.502782348632812
3.781546976101,-0.177170922851562,9.98382092285156,-0.474051928710937
3.78363474264831,-0.220266552734375,9.96945571289062,-0.474051928710937
3.78572250919562,-0.177170922851562,9.97424411621094,-0.502782348632812
3.78776432364875,-0.220266552734375,9.95987890625,-0.488417138671875
3.78980613810187,-0.201112939453125,9.96945571289062,-0.464475122070312
3.79184795255499,-0.177170922851562,9.9981861328125,-0.512359155273437
3.79388825398729,-0.177170922851562,9.96466730957031,-0.4213794921875
3.79592855541958,-0.181959326171875,9.98382092285156,-0.47884033203125
3.79796885685187,-0.205901342773437,9.98382092285156,-0.507570751953125
3.80000842347514,-0.177170922851562,10.0077629394531,-0.502782348632812
3.8020479900984,-0.15322890625,10.0029745361328,-0.521935961914062
3.80408755672166,-0.201112939453125,9.96466730957031,-0.51714755859375
3.80618695277201,-0.167594116210937,9.95987890625,-0.47884033203125
3.80828634882235,-0.158017309570312,9.95987890625,-0.541089575195312
3.8103857448727,-0.181959326171875,9.95987890625,-0.469263525390625
3.81248607354024,-0.148440502929687,9.94551369628906,-0.507570751953125
3.81458640220777,-0.143652099609375,9.95509050292969,-0.536301171875
3.8166867308753,-0.17238251953125,9.96945571289062,-0.541089575195312
3.81878782104457,-0.119710083007812,9.95030209960937,-0.512359155273437
3.82088891121385,-0.205901342773437,9.97903251953125,-0.550666381835937
3.82299000138312,-0.167594116210937,9.97903251953125,-0.521935961914062
3.82502702992044,-0.17238251953125,9.98860932617187,-0.454898315429687
3.82706405845777,-0.15322890625,10.0221281494141,-0.512359155273437
3.82910108699509,-0.205901342773437,9.9981861328125,-0.502782348632812
3.83113498749423,-0.196324536132812,9.98382092285156,-0.531512768554687
3.83316888799336,-0.15322890625,9.96945571289062,-0.512359155273437
3.83520278849249,-0.167594116210937,10.0029745361328,-0.493205541992187
3.83730035055847,-0.162805712890625,9.96945571289062,-0.450109912109375
3.83939791262444,-0.181959326171875,10.0029745361328,-0.47884033203125
3.84149547469041,-0.181959326171875,10.0029745361328,-0.40222587890625
3.843592476101,-0.167594116210937,10.036493359375,-0.469263525390625
3.84568947751159,-0.181959326171875,9.9981861328125,-0.502782348632812
3.84778647892219,-0.1915361328125,9.97903251953125,-0.550666381835937
3.84988350604892,-0.201112939453125,9.97424411621094,-0.450109912109375
3.85198053317566,-0.201112939453125,9.94551369628906,-0.521935961914062
3.8540775603024,-0.17238251953125,9.94551369628906,-0.512359155273437
3.85611404532844,-0.201112939453125,9.96466730957031,-0.512359155273437
3.85815053035448,-0.162805712890625,9.96466730957031,-0.526724365234375
3.86018701538052,-0.196324536132812,9.96466730957031,-0.560243188476563
3.86222192173903,-0.244208569335937,9.94551369628906,-0.531512768554687
3.86425682809754,-0.205901342773437,9.95987890625,-0.51714755859375
3.86629173445605,-0.244208569335937,9.95987890625,-0.507570751953125
3.86839602948643,-0.229843359375,9.97424411621094,-0.560243188476563
3.87050032451681,-0.244208569335937,9.98860932617187,-0.507570751953125
3.87260461954719,-0.253785375976562,9.98382092285156,-0.512359155273437
3.87470985457324,-0.229843359375,9.96945571289062,-0.488417138671875
3.87681508959928,-0.24899697265625,9.93114848632812,-0.51714755859375
3.87892032462532,-0.258573779296875,9.97903251953125,-0.579396801757812
3.8810240196123,-0.3064578125,10.0125513427734,-0.550666381835937
3.88312771459927,-0.239420166015625,10.0125513427734,-0.550666381835937
3.88523140958625,-0.239420166015625,9.95987890625,-0.521935961914062
3.88726962952983,-0.253785375976562,9.96945571289062,-0.469263525390625
3.8893078494734,-0.2681505859375,9.9981861328125,-0.469263525390625
3.89134606941698,-0.229843359375,10.0125513427734,-0.469263525390625
3.89338417065396,-0.225054956054687,9.94551369628906,-0.4979939453125
3.89542227189094,-0.225054956054687,9.98860932617187,-0.44053310546875
3.89746037312792,-0.244208569335937,10.0029745361328,-0.435744702148437
3.89956781724684,-0.225054956054687,9.96466730957031,-0.493205541992187
3.90167526136576,-0.225054956054687,9.98860932617187,-0.464475122070312
3.90378270548469,-0.239420166015625,9.97424411621094,-0.483628735351562
3.9058922979326,-0.253785375976562,9.97903251953125,-0.454898315429687
3.90800189038052,-0.220266552734375,9.95030209960937,-0.47884033203125
3.91011148282844,-0.181959326171875,9.95030209960937,-0.483628735351562
3.91222132429979,-0.234631762695312,9.94551369628906,-0.435744702148437
3.91433116577115,-0.186747729492187,9.94551369628906,-0.445321508789062
3.9164410072425,-0.201112939453125,9.96466730957031,-0.426167895507812
3.91848140828417,-0.186747729492187,9.95509050292969,-0.44053310546875
3.92052180932583,-0.205901342773437,9.95987890625,-0.493205541992187
3.9225622103675,-0.186747729492187,9.94551369628906,-0.4979939453125
3.92460158808017,-0.143652099609375,9.93114848632812,-0.488417138671875
3.92664096579285,-0.201112939453125,9.94551369628906,-0.454898315429687
3.92868034350552,-0.17238251953125,9.95509050292969,-0.507570751953125
3.93078618671299,-0.186747729492187,9.95030209960937,-0.435744702148437
3.93289202992045,-0.167594116210937,10.0125513427734,-0.536301171875
3.93499787312792,-0.196324536132812,9.96466730957031,-0.507570751953125
3.93710771308017,-0.17238251953125,9.95509050292969,-0.526724365234375
3.93921755303243,-0.148440502929687,10.0077629394531,-0.488417138671875
3.94132739298469,-0.17238251953125,9.98382092285156,-0.474051928710937
3.94344111835361,-0.148440502929687,9.96466730957031,-0.51714755859375
3.94555484372253,-0.162805712890625,9.94551369628906,-0.541089575195312
3.94766856909145,-0.138863696289063,9.98860932617187,-0.4979939453125
3.94963544181281,-0.167594116210937,9.93593688964844,-0.526724365234375
3.95160231453416,-0.162805712890625,9.95987890625,-0.541089575195312
3.95356918725552,-0.119710083007812,9.99339772949219,-0.512359155273437
3.95553059025031,-0.17238251953125,9.96945571289062,-0.502782348632812
3.9574919932451,-0.167594116210937,9.97424411621094,-0.569819995117188
3.95945339623989,-0.162805712890625,9.92636008300781,-0.507570751953125
3.96147362247687,-0.167594116210937,9.96466730957031,-0.47884033203125
3.96349384871385,-0.15322890625,9.98860932617187,-0.5746083984375
3.96551407495083,-0.162805712890625,9.97424411621094,-0.545877978515625
3.96753419929979,-0.17238251953125,9.96466730957031,-0.521935961914062
3.96955432364874,-0.148440502929687,9.97424411621094,-0.531512768554687
3.9715744479977,-0.196324536132812,9.96945571289062,-0.51714755859375
3.97359486911315,-0.158017309570312,9.97903251953125,-0.579396801757812
3.9756152902286,-0.13407529296875,9.99339772949219,-0.588973608398437
3.97763571134406,-0.143652099609375,9.96945571289062,-0.5746083984375
3.97965568823208,-0.205901342773437,9.97903251953125,-0.565031591796875
3.9816756651201,-0.186747729492187,9.98860932617187,-0.565031591796875
3.98369564200812,-0.158017309570312,9.95509050292969,-0.521935961914062
3.98571665068868,-0.205901342773437,9.98860932617187,-0.579396801757812
3.98773765936923,-0.201112939453125,10.0029745361328,-0.550666381835937
3.98975866804979,-0.186747729492187,9.9981861328125,-0.545877978515625
3.99179755962422,-0.177170922851562,9.99339772949219,-0.488417138671875
3.99383645119866,-0.196324536132812,10.0125513427734,-0.51714755859375
3.99587534277309,-0.186747729492187,10.0077629394531,-0.4979939453125
3.9978487979326,-0.158017309570312,9.98382092285156,-0.531512768554687
3.9998222530921,-0.181959326171875,9.9981861328125,-0.45968671875
4.0017957082516,-0.17238251953125,10.0029745361328,-0.464475122070312
4.00375320179544,-0.17238251953125,9.98860932617187,-0.4979939453125
4.00571069533928,-0.201112939453125,10.0173397460938,-0.4979939453125
4.00766818888312,-0.17238251953125,9.96945571289062,-0.502782348632812
4.00962521796298,-0.196324536132812,10.0173397460938,-0.474051928710937
4.01158224704284,-0.167594116210937,10.0173397460938,-0.4979939453125
4.0135392761227,-0.148440502929687,9.9981861328125,-0.560243188476563
4.01549630997687,-0.186747729492187,9.93593688964844,-0.45968671875
4.01745334383104,-0.201112939453125,9.9981861328125,-0.531512768554687
4.0194103776852,-0.186747729492187,10.0077629394531,-0.51714755859375
4.02143513745083,-0.162805712890625,9.99339772949219,-0.469263525390625
4.02345989721645,-0.167594116210937,9.98382092285156,-0.507570751953125
4.02548465698207,-0.167594116210937,10.0029745361328,-0.454898315429687
4.0275101745602,-0.158017309570312,9.97903251953125,-0.430956298828125
4.02953569213832,-0.119710083007812,10.0029745361328,-0.507570751953125
4.03156120971645,-0.158017309570312,9.95030209960937,-0.47884033203125
4.03358653610534,-0.143652099609375,9.98382092285156,-0.445321508789062
4.03561186249423,-0.196324536132812,10.0317049560547,-0.47884033203125
4.03763718888312,-0.1915361328125,10.0125513427734,-0.483628735351562
4.03965523126864,-0.158017309570312,10.0029745361328,-0.507570751953125
4.04167327365417,-0.167594116210937,9.99339772949219,-0.507570751953125
4.04369131603969,-0.148440502929687,9.95987890625,-0.454898315429687
4.04567723185187,-0.21068974609375,9.99339772949219,-0.493205541992187
4.04766314766404,-0.162805712890625,9.98860932617187,-0.483628735351562
4.04964906347621,-0.181959326171875,9.98382092285156,-0.474051928710937
4.05168068565503,-0.138863696289063,10.0317049560547,-0.44053310546875
4.05371230783385,-0.17238251953125,10.0269165527344,-0.469263525390625
4.05574393001267,-0.201112939453125,9.98860932617187,-0.521935961914062
4.05785225010816,-0.225054956054687,9.97903251953125,-0.493205541992187
4.05996057020364,-0.1915361328125,9.98860932617187,-0.512359155273437
4.06206889029913,-0.181959326171875,9.96945571289062,-0.464475122070312
4.06418196625399,-0.196324536132812,9.97903251953125,-0.507570751953125
4.06629504220885,-0.201112939453125,9.97424411621094,-0.526724365234375
4.06840811816371,-0.225054956054687,9.9981861328125,-0.488417138671875
4.07052482150572,-0.225054956054687,9.95509050292969,-0.502782348632812
4.07264152484774,-0.196324536132812,9.9981861328125,-0.531512768554687
4.07475822818975,-0.186747729492187,9.96466730957031,-0.445321508789062
4.07687578276875,-0.201112939453125,9.95030209960937,-0.488417138671875
4.07899333734774,-0.215478149414062,9.98860932617187,-0.464475122070312
4.08111089192673,-0.201112939453125,9.97424411621094,-0.51714755859375
4.08315829937031,-0.220266552734375,9.96466730957031,-0.4979939453125
4.08520570681388,-0.196324536132812,10.0269165527344,-0.44053310546875
4.08725311425746,-0.181959326171875,9.98860932617187,-0.483628735351562
4.08929817154913,-0.215478149414062,9.94551369628906,-0.454898315429687
4.09134322884079,-0.181959326171875,9.98382092285156,-0.44053310546875
4.09338828613246,-0.177170922851562,10.0029745361328,-0.47884033203125
4.09543316894496,-0.201112939453125,9.96466730957031,-0.521935961914062
4.09747805175746,-0.196324536132812,9.97903251953125,-0.4979939453125
4.09952293456996,-0.196324536132812,9.96945571289062,-0.483628735351562
4.10369452973055,-0.186747729492187,9.97424411621094,-0.521935961914062
4.10786612489114,-0.1915361328125,9.96945571289062,-0.51714755859375
4.11203772005174,-0.196324536132812,9.99339772949219,-0.493205541992187
4.11422578721753,-0.215478149414062,9.97903251953125,-0.464475122070312
4.11641385438333,-0.234631762695312,9.99339772949219,-0.4979939453125
4.11860192154913,-0.220266552734375,9.97424411621094,-0.55545478515625
4.12078820800747,-0.220266552734375,9.99339772949219,-0.531512768554687
4.1229744944658,-0.196324536132812,9.94551369628906,-0.545877978515625
4.12516078092414,-0.181959326171875,9.96466730957031,-0.565031591796875
4.127274950629,-0.181959326171875,10.0077629394531,-0.4979939453125
4.12938912033386,-0.229843359375,9.94551369628906,-0.579396801757812
4.13150329003873,-0.234631762695312,9.95030209960937,-0.541089575195312
4.13361652430522,-0.215478149414062,9.92636008300781,-0.579396801757812
4.13572975857171,-0.17238251953125,9.99339772949219,-0.579396801757812
4.13784299283821,-0.17238251953125,9.93593688964844,-0.464475122070312
4.13995651410557,-0.1915361328125,9.89762966308594,-0.502782348632812
4.14207003537293,-0.201112939453125,9.97903251953125,-0.507570751953125
4.14418355664029,-0.158017309570312,9.96945571289062,-0.512359155273437
4.14629882486946,-0.1915361328125,10.036493359375,-0.488417138671875
4.14841409309862,-0.158017309570312,9.93114848632812,-0.4979939453125
4.15052936132779,-0.162805712890625,9.97424411621094,-0.474051928710937
4.15264329025574,-0.17238251953125,9.90720646972656,-0.569819995117188
4.15475721918369,-0.143652099609375,9.98382092285156,-0.493205541992187
4.15687114811164,-0.177170922851562,9.99339772949219,-0.474051928710937
4.1663931236162,-0.220266552734375,9.95987890625,-0.493205541992187
4.17591509912075,-0.24899697265625,9.97903251953125,-0.512359155273437
4.18543707462531,-0.229843359375,9.98860932617187,-0.531512768554687
4.18754764537184,-0.21068974609375,10.0173397460938,-0.526724365234375
4.18965821611836,-0.17238251953125,9.98382092285156,-0.502782348632812
4.19176878686489,-0.201112939453125,9.97424411621094,-0.464475122070312
4.19387951961229,-0.220266552734375,9.97903251953125,-0.47884033203125
4.19599025235969,-0.234631762695312,10.0029745361328,-0.512359155273437
4.19810098510708,-0.201112939453125,9.96945571289062,-0.47884033203125
4.20021148098382,-0.234631762695312,9.99339772949219,-0.493205541992187
4.20232197686055,-0.24899697265625,10.0221281494141,-0.531512768554687
4.20443247273729,-0.220266552734375,9.99339772949219,-0.51714755859375
4.20654384068434,-0.201112939453125,9.95509050292969,-0.493205541992187
4.20865520863139,-0.196324536132812,9.95509050292969,-0.512359155273437
4.21076657657844,-0.196324536132812,10.0125513427734,-0.4979939453125
4.21287845971646,-0.21068974609375,10.0077629394531,-0.488417138671875
4.21499034285448,-0.220266552734375,9.97424411621094,-0.488417138671875
4.2171022259925,-0.167594116210937,10.0029745361328,-0.445321508789062
4.21921712399597,-0.205901342773437,9.96466730957031,-0.435744702148437
4.22133202199945,-0.1915361328125,9.99339772949219,-0.469263525390625
4.22344692000292,-0.201112939453125,9.95509050292969,-0.47884033203125
4.22556231062792,-0.220266552734375,9.97424411621094,-0.493205541992187
4.22767770125292,-0.1915361328125,9.94551369628906,-0.521935961914062
4.22979309187792,-0.17238251953125,9.98382092285156,-0.488417138671875
4.23191042369216,-0.143652099609375,9.97903251953125,-0.545877978515625
4.23402775550639,-0.1915361328125,9.95509050292969,-0.531512768554687
4.23614508732063,-0.158017309570312,9.96466730957031,-0.430956298828125
4.23833217499424,-0.186747729492187,9.97424411621094,-0.4979939453125
4.24051926266785,-0.186747729492187,9.97903251953125,-0.464475122070312
4.24270635034147,-0.196324536132812,9.97903251953125,-0.550666381835937
4.24489235359667,-0.201112939453125,9.92636008300781,-0.4979939453125
4.24707835685188,-0.220266552734375,9.98382092285156,-0.51714755859375
4.24926436010709,-0.225054956054687,9.95509050292969,-0.526724365234375
4.25145077644823,-0.229843359375,9.99339772949219,-0.469263525390625
4.25363719278938,-0.220266552734375,9.93593688964844,-0.464475122070312
4.25582360913053,-0.177170922851562,9.96945571289062,-0.512359155273437
4.25801047360535,-0.220266552734375,9.94072529296875,-0.502782348632812
4.26019733808018,-0.234631762695312,9.96466730957031,-0.45968671875
4.26238420255501,-0.201112939453125,9.99339772949219,-0.474051928710937
4.26457114765049,-0.229843359375,9.97903251953125,-0.47884033203125
4.26675809274598,-0.234631762695312,9.96945571289062,-0.531512768554687
4.26894503784146,-0.196324536132812,9.98860932617187,-0.47884033203125
4.27106447881369,-0.253785375976562,9.97424411621094,-0.507570751953125
4.27318391978591,-0.177170922851562,9.95509050292969,-0.545877978515625
4.27530336075813,-0.229843359375,9.98382092285156,-0.4979939453125
4.27741856909147,-0.225054956054687,9.95509050292969,-0.545877978515625
4.2795337774248,-0.196324536132812,9.97424411621094,-0.502782348632812
4.28164898575813,-0.196324536132812,9.96466730957031,-0.512359155273437
4.2881010196123,-0.186747729492187,9.95987890625,-0.507570751953125
4.29455305346647,-0.17238251953125,10.0077629394531,-0.521935961914062
4.30100508732064,-0.229843359375,9.9981861328125,-0.531512768554687
4.30311617564529,-0.234631762695312,9.9981861328125,-0.536301171875
4.30522726396995,-0.229843359375,10.0077629394531,-0.526724365234375
4.3073383522946,-0.220266552734375,9.97903251953125,-0.502782348632812
4.3094487741696,-0.1915361328125,9.96466730957031,-0.512359155273437
4.3115591960446,-0.258573779296875,9.98382092285156,-0.493205541992187
4.3136696179196,-0.239420166015625,9.98860932617187,-0.4979939453125
4.31577992651335,-0.205901342773437,9.99339772949219,-0.4979939453125
4.3178902351071,-0.21068974609375,9.97903251953125,-0.541089575195312
4.32000054370085,-0.220266552734375,9.97424411621094,-0.541089575195312
4.32218211260276,-0.205901342773437,9.97903251953125,-0.545877978515625
4.32436368150467,-0.196324536132812,9.96945571289062,-0.550666381835937
4.32654525040658,-0.215478149414062,9.93114848632812,-0.502782348632812
4.32872845060189,-0.21068974609375,9.96466730957031,-0.526724365234375
4.3309116507972,-0.244208569335937,9.97424411621094,-0.536301171875
4.33309485099251,-0.1915361328125,9.99339772949219,-0.55545478515625
4.33521342043696,-0.1915361328125,9.97903251953125,-0.545877978515625
4.3373319898814,-0.181959326171875,10.0029745361328,-0.512359155273437
4.33945055932585,-0.225054956054687,10.0317049560547,-0.622492431640625
4.34149172067568,-0.225054956054687,9.98382092285156,-0.531512768554687
4.3435328820255,-0.253785375976562,10.0221281494141,-0.55545478515625
4.34557404337533,-0.220266552734375,10.0125513427734,-0.565031591796875
4.34761090133974,-0.215478149414062,9.9981861328125,-0.51714755859375
4.34964775930415,-0.229843359375,10.0269165527344,-0.565031591796875
4.35168461726856,-0.21068974609375,10.0077629394531,-0.512359155273437
4.35378841294999,-0.220266552734375,10.0460701660156,-0.51714755859375
4.35589220863141,-0.201112939453125,10.0700121826172,-0.512359155273437
4.35799600431283,-0.181959326171875,10.0748005859375,-0.493205541992187
4.36010098206891,-0.234631762695312,10.0125513427734,-0.469263525390625
4.36220595982499,-0.196324536132812,10.0029745361328,-0.4979939453125
4.36431093758106,-0.196324536132812,9.98382092285156,-0.469263525390625
4.36641769637012,-0.17238251953125,9.9981861328125,-0.512359155273437
4.36852445515919,-0.21068974609375,10.036493359375,-0.45968671875
4.37063121394825,-0.201112939453125,9.98382092285156,-0.4979939453125
4.37273891208193,-0.21068974609375,9.97903251953125,-0.483628735351562
4.37484661021561,-0.205901342773437,10.0125513427734,-0.507570751953125
4.37695430834929,-0.196324536132812,9.98860932617187,-0.4979939453125
4.37904046571149,-0.220266552734375,9.98382092285156,-0.502782348632812
4.38112662307368,-0.229843359375,9.95987890625,-0.474051928710937
4.38321278043588,-0.205901342773437,9.9215716796875,-0.502782348632812
4.38532880455155,-0.225054956054687,9.98860932617187,-0.483628735351562
4.38744482866722,-0.239420166015625,9.96945571289062,-0.512359155273437
4.38956085278289,-0.272938989257812,9.95509050292969,-0.450109912109375
4.39167014493784,-0.21068974609375,9.95987890625,-0.531512768554687
4.39377943709279,-0.196324536132812,9.9215716796875,-0.483628735351562
4.39588872924773,-0.205901342773437,9.95509050292969,-0.545877978515625
4.39799704451466,-0.225054956054687,9.92636008300781,-0.493205541992187
4.40010535978159,-0.229843359375,9.92636008300781,-0.51714755859375
4.40221367504852,-0.272938989257812,9.93593688964844,-0.521935961914062
4.40432190237057,-0.205901342773437,9.94072529296875,-0.588973608398437
4.40643012969262,-0.220266552734375,9.92636008300781,-0.5746083984375
4.40853835701466,-0.253785375976562,9.95509050292969,-0.545877978515625
4.41064676510928,-0.215478149414062,9.96466730957031,-0.531512768554687
4.4127551732039,-0.244208569335937,9.94551369628906,-0.521935961914062
4.41486358129852,-0.186747729492187,9.94551369628906,-0.526724365234375
4.41700678686492,-0.234631762695312,9.91678327636719,-0.584185205078125
4.41914999243133,-0.17238251953125,9.9215716796875,-0.47884033203125
4.42129319799774,-0.215478149414062,9.95987890625,-0.536301171875
4.42340179939748,-0.196324536132812,9.9215716796875,-0.4979939453125
4.42551040079722,-0.220266552734375,9.93593688964844,-0.469263525390625
4.42761900219696,-0.21068974609375,9.94551369628906,-0.488417138671875
4.42972399091223,-0.21068974609375,9.93593688964844,-0.464475122070312
4.43182897962751,-0.17238251953125,9.97903251953125,-0.4979939453125
4.43393396834279,-0.220266552734375,9.98382092285156,-0.488417138671875
4.43603624601206,-0.181959326171875,9.98382092285156,-0.493205541992187
4.43813852368133,-0.1915361328125,9.95987890625,-0.47884033203125
4.4402408013506,-0.201112939453125,9.96945571289062,-0.469263525390625
4.44234226879852,-0.1915361328125,9.95987890625,-0.521935961914062
4.44444373624644,-0.1915361328125,9.94072529296875,-0.493205541992187
4.44654520369435,-0.201112939453125,9.98382092285156,-0.4979939453125
4.44868459242048,-0.201112939453125,9.94072529296875,-0.430956298828125
4.45082398114661,-0.196324536132812,9.90720646972656,-0.507570751953125
4.45296336987274,-0.215478149414062,9.91199487304687,-0.44053310546875
4.45507408943654,-0.205901342773437,9.93593688964844,-0.4979939453125
4.45718480900034,-0.205901342773437,9.91199487304687,-0.493205541992187
4.45929552856414,-0.225054956054687,9.98382092285156,-0.502782348632812
4.46140607636145,-0.225054956054687,9.94551369628906,-0.493205541992187
4.46351662415876,-0.205901342773437,9.93114848632812,-0.488417138671875
4.46562717195607,-0.244208569335937,9.95030209960937,-0.426167895507812
4.46773760923905,-0.186747729492187,9.92636008300781,-0.450109912109375
4.46984804652204,-0.253785375976562,9.92636008300781,-0.512359155273437
4.47195848380502,-0.1915361328125,9.94072529296875,-0.502782348632812
4.47406890589704,-0.186747729492187,9.93114848632812,-0.474051928710937
4.47617932798905,-0.201112939453125,9.95987890625,-0.454898315429687
4.47828975008106,-0.244208569335937,9.95987890625,-0.536301171875
4.48043537605763,-0.253785375976562,9.96466730957031,-0.550666381835937
4.48258100203419,-0.196324536132812,9.97424411621094,-0.512359155273437
4.48472662801075,-0.215478149414062,9.97903251953125,-0.51714755859375
4.48683892049122,-0.234631762695312,10.0029745361328,-0.493205541992187
4.48895121297169,-0.239420166015625,9.97424411621094,-0.507570751953125
4.49106350545216,-0.215478149414062,10.0029745361328,-0.531512768554687
4.49317692385493,-0.162805712890625,9.98860932617187,-0.541089575195312
4.49529034225771,-0.196324536132812,9.98382092285156,-0.526724365234375
4.49740376066049,-0.205901342773437,10.0221281494141,-0.531512768554687
4.49951691115962,-0.177170922851562,10.0077629394531,-0.541089575195312
4.50163006165875,-0.205901342773437,9.96466730957031,-0.521935961914062
4.50374321215789,-0.186747729492187,9.98382092285156,-0.493205541992187
4.5058560717499,-0.15322890625,9.97424411621094,-0.512359155273437
4.50796893134192,-0.167594116210937,9.96945571289062,-0.483628735351562
4.51008179093393,-0.220266552734375,9.98382092285156,-0.464475122070312
4.51222871145259,-0.196324536132812,9.99339772949219,-0.502782348632812
4.51437563197126,-0.181959326171875,9.95030209960937,-0.493205541992187
4.51652255248992,-0.201112939453125,9.99339772949219,-0.521935961914062
4.51863517700164,-0.167594116210937,9.98860932617187,-0.493205541992187
4.52074780151336,-0.167594116210937,9.96945571289062,-0.483628735351562
4.52286042602508,-0.21068974609375,9.95987890625,-0.493205541992187
4.52497583357717,-0.225054956054687,10.0173397460938,-0.45968671875
4.52709124112925,-0.205901342773437,9.97903251953125,-0.512359155273437
4.52920664868133,-0.220266552734375,10.0077629394531,-0.512359155273437
4.53132312063229,-0.196324536132812,9.97424411621094,-0.545877978515625
4.53343959258324,-0.201112939453125,9.95987890625,-0.483628735351562
4.5355560645342,-0.215478149414062,9.95509050292969,-0.5746083984375
4.53773747441918,-0.215478149414062,9.96945571289062,-0.55545478515625
4.53991888430416,-0.220266552734375,9.95030209960937,-0.483628735351562
4.54210029418914,-0.205901342773437,9.95509050292969,-0.521935961914062
4.54424740470347,-0.158017309570312,9.98860932617187,-0.512359155273437
4.54639451521779,-0.205901342773437,9.97903251953125,-0.469263525390625
4.54854162573211,-0.17238251953125,9.98382092285156,-0.541089575195312
4.55065288387013,-0.220266552734375,9.95030209960937,-0.541089575195312
4.55276414200815,-0.196324536132812,9.94551369628906,-0.536301171875
4.55487540014617,-0.196324536132812,9.96466730957031,-0.536301171875
4.55698566007456,-0.220266552734375,9.97424411621094,-0.51714755859375
4.55909592000295,-0.186747729492187,9.99339772949219,-0.536301171875
4.56120617993133,-0.205901342773437,9.99339772949219,-0.55545478515625
4.5633175332842,-0.225054956054687,9.97903251953125,-0.569819995117188
4.56542888663706,-0.239420166015625,9.97424411621094,-0.493205541992187
4.56754023998993,-0.253785375976562,9.94551369628906,-0.59376201171875
4.56965208710364,-0.229843359375,9.90720646972656,-0.541089575195312
4.57176393421736,-0.215478149414062,9.93593688964844,-0.560243188476563
4.57387578133107,-0.181959326171875,9.94072529296875,-0.55545478515625
4.57601916240746,-0.1915361328125,9.96945571289062,-0.51714755859375
4.57816254348385,-0.258573779296875,9.95030209960937,-0.507570751953125
4.58030592456024,-0.234631762695312,9.95030209960937,-0.536301171875
4.5824145605737,-0.225054956054687,9.9215716796875,-0.526724365234375
4.58452319658715,-0.21068974609375,9.91678327636719,-0.584185205078125
4.58663183260061,-0.225054956054687,9.96466730957031,-0.59376201171875
4.58873642808672,-0.24899697265625,9.93593688964844,-0.545877978515625
4.59084102357284,-0.229843359375,9.88805285644531,-0.526724365234375
4.59294561905895,-0.1915361328125,9.94551369628906,-0.584185205078125
4.59504723760278,-0.229843359375,9.96466730957031,-0.584185205078125
4.59714885614662,-0.205901342773437,9.94551369628906,-0.541089575195312
4.59925047469046,-0.229843359375,9.91199487304687,-0.488417138671875
4.60135123304549,-0.201112939453125,9.95030209960937,-0.521935961914062
4.60345199140053,-0.215478149414062,9.96466730957031,-0.512359155273437
4.60555274975556,-0.225054956054687,9.99339772949219,-0.526724365234375
4.60769259936494,-0.1915361328125,9.97903251953125,-0.502782348632812
4.60983244897431,-0.225054956054687,9.95987890625,-0.512359155273437
4.61197229858369,-0.215478149414062,9.9981861328125,-0.512359155273437
4.61408271199515,-0.181959326171875,9.98860932617187,-0.464475122070312
4.6161931254066,-0.1915361328125,9.97424411621094,-0.469263525390625
4.61830353881806,-0.21068974609375,9.9215716796875,-0.474051928710937
4.62041335771997,-0.21068974609375,9.96945571289062,-0.526724365234375
4.62252317662188,-0.225054956054687,9.96466730957031,-0.507570751953125
4.62463299552379,-0.201112939453125,10.0029745361328,-0.4213794921875
4.62674253420652,-0.244208569335937,9.96466730957031,-0.493205541992187
4.62885207288925,-0.229843359375,9.94551369628906,-0.531512768554687
4.63096161157197,-0.205901342773437,9.95030209960937,-0.488417138671875
4.63307061960149,-0.186747729492187,9.93593688964844,-0.507570751953125
4.635179627631,-0.229843359375,9.92636008300781,-0.541089575195312
4.63728863566051,-0.220266552734375,9.9981861328125,-0.526724365234375
4.63943319414576,-0.181959326171875,10.0125513427734,-0.521935961914062
4.641577752631,-0.196324536132812,9.97903251953125,-0.51714755859375
4.64372231111624,-0.205901342773437,9.96466730957031,-0.584185205078125
4.645835940131,-0.225054956054687,10.0029745361328,-0.483628735351562
4.64794956914576,-0.229843359375,9.95509050292969,-0.512359155273437
4.65006319816051,-0.21068974609375,9.9981861328125,-0.512359155273437
4.65217685978161,-0.220266552734375,9.99339772949219,-0.51714755859375
4.6542905214027,-0.244208569335937,9.97903251953125,-0.541089575195312
4.65640418302379,-0.21068974609375,9.97424411621094,-0.507570751953125
4.65851778350122,-0.205901342773437,9.98860932617187,-0.526724365234375
4.66063138397865,-0.196324536132812,9.97903251953125,-0.488417138671875
4.66274498445608,-0.244208569335937,9.94072529296875,-0.512359155273437
4.66485845358585,-0.282515795898438,9.95030209960937,-0.521935961914062
4.66697192271563,-0.21068974609375,9.95509050292969,-0.445321508789062
4.6690853918454,-0.239420166015625,10.0029745361328,-0.507570751953125
4.67123294344045,-0.225054956054687,9.99339772949219,-0.488417138671875
4.67338049503551,-0.205901342773437,9.9981861328125,-0.450109912109375
4.67552804663056,-0.220266552734375,9.98382092285156,-0.493205541992187
4.67764201554332,-0.244208569335937,9.97424411621094,-0.521935961914062
4.67975598445608,-0.24899697265625,9.97903251953125,-0.507570751953125
4.68186995336884,-0.2681505859375,9.97903251953125,-0.531512768554687
4.68398648592092,-0.220266552734375,9.97424411621094,-0.51714755859375
4.686103018473,-0.21068974609375,9.96466730957031,-0.617704028320312
4.68821955102509,-0.225054956054687,9.9981861328125,-0.569819995117188
4.69033751440399,-0.225054956054687,9.9981861328125,-0.59376201171875
4.6924554777829,-0.215478149414062,10.0029745361328,-0.483628735351562
4.6945734411618,-0.234631762695312,9.96466730957031,-0.541089575195312
4.69669062681719,-0.220266552734375,9.98382092285156,-0.536301171875
4.69880781247257,-0.234631762695312,9.97903251953125,-0.507570751953125
4.70092499812795,-0.234631762695312,9.95030209960937,-0.560243188476563
4.70306797957326,-0.201112939453125,10.0173397460938,-0.51714755859375
4.70521096101857,-0.225054956054687,9.98860932617187,-0.541089575195312
4.70735394246389,-0.225054956054687,9.95509050292969,-0.545877978515625
4.70946232218394,-0.21068974609375,9.99339772949219,-0.588973608398437
4.71157070190399,-0.215478149414062,9.94072529296875,-0.541089575195312
4.71367908162404,-0.225054956054687,10.0077629394531,-0.550666381835937
4.71578656947126,-0.225054956054687,9.97424411621094,-0.526724365234375
4.71789405731848,-0.1915361328125,9.9981861328125,-0.4979939453125
4.7200015451657,-0.181959326171875,9.99339772949219,-0.493205541992187
4.72210887133758,-0.1915361328125,9.98382092285156,-0.474051928710937
4.72421619750945,-0.24899697265625,10.0077629394531,-0.507570751953125
4.72632352368133,-0.205901342773437,9.96945571289062,-0.521935961914062
4.72843074975554,-0.21068974609375,9.95987890625,-0.435744702148437
4.73053797582976,-0.225054956054687,9.99339772949219,-0.493205541992187
4.73264520190398,-0.205901342773437,9.98860932617187,-0.531512768554687
4.73478776207108,-0.21068974609375,9.97903251953125,-0.502782348632812
4.73693032223818,-0.215478149414062,9.98860932617187,-0.464475122070312
4.73907288240528,-0.253785375976562,9.97424411621094,-0.488417138671875
4.7412569615611,-0.21068974609375,10.0125513427734,-0.493205541992187
4.74344104071691,-0.1915361328125,9.97903251953125,-0.430956298828125
4.74562511987273,-0.1915361328125,9.99339772949219,-0.526724365234375
4.74780657543914,-0.215478149414062,9.95987890625,-0.536301171875
4.74998803100555,-0.220266552734375,9.96466730957031,-0.4979939453125
4.75216948657195,-0.201112939453125,9.9981861328125,-0.541089575195312
4.75434927205373,-0.205901342773437,9.98382092285156,-0.4979939453125
4.7565290575355,-0.229843359375,9.95987890625,-0.474051928710937
4.75870884301727,-0.177170922851562,9.98860932617187,-0.488417138671875
4.76088802606849,-0.229843359375,10.0077629394531,-0.464475122070312
4.7630672091197,-0.196324536132812,9.96466730957031,-0.47884033203125
4.76524639217092,-0.220266552734375,9.97424411621094,-0.454898315429687
4.76739545005937,-0.181959326171875,9.93593688964844,-0.474051928710937
4.76954450794782,-0.196324536132812,9.96945571289062,-0.51714755859375
4.77169356583628,-0.162805712890625,9.98382092285156,-0.483628735351562
4.77381142998559,-0.181959326171875,9.96466730957031,-0.469263525390625
4.77592929413489,-0.201112939453125,9.95509050292969,-0.483628735351562
4.7780471582842,-0.229843359375,9.93593688964844,-0.47884033203125
4.78016402216224,-0.186747729492187,9.98860932617187,-0.464475122070312
4.78228088604028,-0.177170922851562,9.95987890625,-0.45968671875
4.78439774991832,-0.229843359375,9.94551369628906,-0.507570751953125
4.7887247387421,-0.253785375976562,9.9981861328125,-0.526724365234375
4.79305172756589,-0.196324536132812,9.97903251953125,-0.512359155273437
4.79737871638967,-0.234631762695312,9.96945571289062,-0.44053310546875
4.79960270385712,-0.239420166015625,9.99339772949219,-0.483628735351562
4.80182669132457,-0.24899697265625,9.97903251953125,-0.526724365234375
4.80405067879202,-0.244208569335937,9.96945571289062,-0.474051928710937
4.80624260549557,-0.253785375976562,9.97424411621094,-0.507570751953125
4.80843453219913,-0.205901342773437,10.0125513427734,-0.450109912109375
4.81062645890269,-0.258573779296875,9.96945571289062,-0.474051928710937
4.81282199335365,-0.24899697265625,9.95509050292969,-0.493205541992187
4.8150175278046,-0.277727392578125,9.96466730957031,-0.493205541992187
4.81721306225556,-0.234631762695312,9.9981861328125,-0.464475122070312
4.81940955281545,-0.225054956054687,10.0029745361328,-0.502782348632812
4.82160604337535,-0.234631762695312,9.97903251953125,-0.55545478515625
4.82380253393525,-0.272938989257812,9.97903251953125,-0.464475122070312
4.82599947968177,-0.24899697265625,9.99339772949219,-0.507570751953125
4.8281964254283,-0.277727392578125,9.95987890625,-0.4979939453125
4.83039337117483,-0.244208569335937,9.98860932617187,-0.45968671875
4.83255664613143,-0.24899697265625,9.93114848632812,-0.4979939453125
4.83471992108802,-0.229843359375,9.96945571289062,-0.512359155273437
4.83688319604462,-0.215478149414062,9.97903251953125,-0.4979939453125
4.83901219333195,-0.258573779296875,9.96945571289062,-0.483628735351562
4.84114119061928,-0.215478149414062,9.92636008300781,-0.541089575195312
4.8432701879066,-0.1915361328125,9.93114848632812,-0.474051928710937
4.84760911309107,-0.196324536132812,9.95030209960937,-0.454898315429687
4.85194803827553,-0.215478149414062,9.96945571289062,-0.464475122070312
4.85628696346,-0.24899697265625,9.94551369628906,-0.483628735351562
4.85847088343612,-0.201112939453125,9.96945571289062,-0.40222587890625
4.86065480341225,-0.220266552734375,9.95030209960937,-0.464475122070312
4.86283872338838,-0.205901342773437,9.96466730957031,-0.450109912109375
4.86498811482718,-0.196324536132812,9.95030209960937,-0.387860668945312
4.86713750626599,-0.220266552734375,9.93593688964844,-0.430956298828125
4.86928689770479,-0.205901342773437,9.9981861328125,-0.45968671875
4.87136284621825,-0.215478149414062,9.95987890625,-0.450109912109375
4.8734387947317,-0.205901342773437,9.95987890625,-0.502782348632812
4.87551474324516,-0.205901342773437,9.98382092285156,-0.545877978515625
4.87754950534368,-0.258573779296875,9.96945571289062,-0.464475122070312
4.8795842674422,-0.263362182617187,9.95509050292969,-0.483628735351562
4.88161902954073,-0.225054956054687,9.96945571289062,-0.469263525390625
4.88371925463839,-0.253785375976562,9.97424411621094,-0.445321508789062
4.88581947973604,-0.229843359375,9.98382092285156,-0.488417138671875
4.8879197048337,-0.239420166015625,9.98382092285156,-0.502782348632812
4.89001848217745,-0.215478149414062,9.96945571289062,-0.4979939453125
4.8921172595212,-0.225054956054687,9.97424411621094,-0.521935961914062
4.89421603686495,-0.225054956054687,9.97424411621094,-0.51714755859375
4.89631404364664,-0.220266552734375,9.96466730957031,-0.483628735351562
4.89841205042832,-0.234631762695312,9.96466730957031,-0.51714755859375
4.90051005721,-0.220266552734375,9.95509050292969,-0.512359155273437
4.90260791419785,-0.225054956054687,9.95509050292969,-0.526724365234375
4.9047057711857,-0.220266552734375,9.95030209960937,-0.531512768554687
4.90680362817354,-0.220266552734375,9.98860932617187,-0.512359155273437
4.90897113962103,-0.229843359375,9.96466730957031,-0.617704028320312
4.91113865106851,-0.205901342773437,9.94072529296875,-0.47884033203125
4.91330616251599,-0.201112939453125,10.0221281494141,-0.536301171875
4.91546732263607,-0.215478149414062,9.98382092285156,-0.464475122070312
4.91762848275615,-0.21068974609375,9.98860932617187,-0.526724365234375
4.91978964287623,-0.234631762695312,9.96466730957031,-0.51714755859375
4.92191392763462,-0.220266552734375,9.98860932617187,-0.545877978515625
4.92403821239301,-0.272938989257812,9.96466730957031,-0.521935961914062
4.92616249715141,-0.239420166015625,10.0029745361328,-0.526724365234375
4.92819991701903,-0.253785375976562,9.99339772949219,-0.474051928710937
4.93023733688665,-0.215478149414062,10.0029745361328,-0.435744702148437
4.93227475675427,-0.234631762695312,10.0173397460938,-0.526724365234375
4.93445980710149,-0.234631762695312,9.94072529296875,-0.502782348632812
4.93664485744871,-0.215478149414062,10.0029745361328,-0.4979939453125
4.93882990779593,-0.24899697265625,10.0173397460938,-0.4979939453125
4.94101558791746,-0.244208569335937,9.98382092285156,-0.4979939453125
4.94320126803899,-0.263362182617187,10.0029745361328,-0.51714755859375
4.94538694816051,-0.277727392578125,9.96945571289062,-0.47884033203125
4.94757277004637,-0.263362182617187,9.96466730957031,-0.51714755859375
4.94975859193222,-0.24899697265625,9.98382092285156,-0.4979939453125
4.95194441381807,-0.28730419921875,10.0077629394531,-0.4979939453125
4.95412996861407,-0.24899697265625,10.0029745361328,-0.531512768554687
4.95631552341008,-0.205901342773437,9.9981861328125,-0.569819995117188
4.95850107820609,-0.215478149414062,10.0221281494141,-0.493205541992187
4.96068539276772,-0.253785375976562,10.0125513427734,-0.502782348632812
4.96286970732935,-0.24899697265625,9.98382092285156,-0.565031591796875
4.96505402189099,-0.244208569335937,10.0029745361328,-0.47884033203125
4.96723838674559,-0.2681505859375,9.95509050292969,-0.512359155273437
4.96942275160019,-0.215478149414062,9.96466730957031,-0.51714755859375
4.97160711645479,-0.1915361328125,9.97424411621094,-0.450109912109375
4.97379095630532,-0.220266552734375,9.95987890625,-0.4979939453125
4.97597479615585,-0.225054956054687,9.9981861328125,-0.47884033203125
4.97815863600639,-0.234631762695312,9.96945571289062,-0.560243188476563
4.99226666377738,-0.205901342773437,9.97424411621094,-0.493205541992187
5.00637469154838,-0.220266552734375,9.93114848632812,-0.502782348632812
5.02048271931938,-0.225054956054687,9.96466730957031,-0.469263525390625
5.02262812952989,-0.215478149414062,9.9981861328125,-0.521935961914062
5.02477353974039,-0.215478149414062,9.94551369628906,-0.450109912109375
5.02691894995089,-0.229843359375,9.96945571289062,-0.502782348632812
5.02902921763753,-0.1915361328125,9.90241806640625,-0.416591088867187
5.03113948532416,-0.205901342773437,9.96466730957031,-0.536301171875
5.03324975301079,-0.21068974609375,9.93114848632812,-0.454898315429687
5.03535774009847,-0.21068974609375,9.96466730957031,-0.474051928710937
5.03746572718614,-0.229843359375,9.94551369628906,-0.521935961914062
5.03957371427381,-0.234631762695312,9.95030209960937,-0.550666381835937
5.04167973076687,-0.201112939453125,9.98860932617187,-0.51714755859375
5.04378574725992,-0.225054956054687,9.97903251953125,-0.464475122070312
5.04589176375298,-0.225054956054687,9.95509050292969,-0.512359155273437
5.04806605997694,-0.177170922851562,9.95509050292969,-0.4979939453125
5.0502403562009,-0.239420166015625,9.97903251953125,-0.47884033203125
5.05241465242485,-0.201112939453125,9.98382092285156,-0.502782348632812
5.05451882538492,-0.205901342773437,9.97424411621094,-0.469263525390625
5.05662299834499,-0.215478149414062,9.96945571289062,-0.545877978515625
5.05872717130506,-0.234631762695312,9.98382092285156,-0.4979939453125
5.06076053002902,-0.21068974609375,9.96466730957031,-0.55545478515625
5.06279388875298,-0.220266552734375,9.97903251953125,-0.488417138671875
5.06482724747693,-0.21068974609375,9.97903251953125,-0.502782348632812
5.06685944978813,-0.225054956054687,9.96945571289062,-0.51714755859375
5.06889165209933,-0.21068974609375,9.98382092285156,-0.565031591796875
5.07092385441053,-0.201112939453125,9.96945571289062,-0.4979939453125
5.07295551586886,-0.196324536132812,9.98382092285156,-0.483628735351562
5.07498717732719,-0.201112939453125,9.9981861328125,-0.584185205078125
5.07701883878553,-0.239420166015625,9.97424411621094,-0.51714755859375
5.07912066669351,-0.177170922851562,9.98860932617187,-0.483628735351562
5.0812224946015,-0.196324536132812,10.0173397460938,-0.584185205078125
5.08332432250948,-0.239420166015625,9.98382092285156,-0.526724365234375
5.08542738365315,-0.1915361328125,9.96466730957031,-0.536301171875
5.08753044479681,-0.181959326171875,9.97424411621094,-0.512359155273437
5.08963350594048,-0.229843359375,9.96466730957031,-0.512359155273437
5.0917379930824,-0.205901342773437,9.95509050292969,-0.502782348632812
5.09384248022433,-0.186747729492187,9.94551369628906,-0.488417138671875
5.09594696736625,-0.177170922851562,9.95030209960937,-0.531512768554687
5.09804575428031,-0.229843359375,9.93593688964844,-0.512359155273437
5.10014454119438,-0.215478149414062,9.95509050292969,-0.502782348632812
5.10224332810844,-0.220266552734375,9.95987890625,-0.445321508789062
5.10431759112927,-0.1915361328125,9.96945571289062,-0.584185205078125
5.1063918541501,-0.177170922851562,9.94072529296875,-0.51714755859375
5.10846611717094,-0.1915361328125,9.99339772949219,-0.526724365234375
5.11058351157198,-0.220266552734375,9.97903251953125,-0.507570751953125
5.11270090597302,-0.229843359375,9.98860932617187,-0.565031591796875
5.11481830037406,-0.215478149414062,9.97903251953125,-0.450109912109375
5.11693355395479,-0.253785375976562,9.98860932617187,-0.512359155273437
5.11904880753552,-0.215478149414062,9.93593688964844,-0.565031591796875
5.12116406111625,-0.21068974609375,9.95030209960937,-0.493205541992187
5.12328186222302,-0.239420166015625,9.94551369628906,-0.512359155273437
5.12539966332979,-0.201112939453125,9.96466730957031,-0.45968671875
5.12751746443656,-0.244208569335937,9.93114848632812,-0.483628735351562
5.12963691815835,-0.186747729492187,9.95509050292969,-0.560243188476563
5.13175637188014,-0.181959326171875,9.95030209960937,-0.51714755859375
5.13387582560193,-0.253785375976562,9.94551369628906,-0.560243188476563
5.13595925751382,-0.225054956054687,9.96945571289062,-0.502782348632812
5.13804268942571,-0.229843359375,9.95030209960937,-0.4979939453125
5.14012612133761,-0.244208569335937,9.97424411621094,-0.526724365234375
5.14223287687146,-0.282515795898438,9.95509050292969,-0.550666381835937
5.14433963240531,-0.263362182617187,9.99339772949219,-0.550666381835937
5.14644638793917,-0.229843359375,9.96466730957031,-0.531512768554687
5.14855150051512,-0.205901342773437,9.98382092285156,-0.502782348632812
5.15065661309108,-0.201112939453125,9.95987890625,-0.512359155273437
5.15276172566703,-0.244208569335937,9.97424411621094,-0.588973608398437
5.15486602243353,-0.2681505859375,9.98382092285156,-0.531512768554687
5.15697031920002,-0.220266552734375,9.95509050292969,-0.502782348632812
5.15907461596651,-0.229843359375,9.97424411621094,-0.536301171875
5.16117890150253,-0.244208569335937,9.94072529296875,-0.521935961914062
5.16328318703856,-0.21068974609375,9.92636008300781,-0.521935961914062
5.16538747257458,-0.234631762695312,9.97424411621094,-0.541089575195312
5.16746070760062,-0.244208569335937,9.94551369628906,-0.526724365234375
5.16953394262666,-0.21068974609375,9.9215716796875,-0.512359155273437
5.1716071776527,-0.205901342773437,9.96945571289062,-0.488417138671875
5.17371283249211,-0.215478149414062,9.98382092285156,-0.512359155273437
5.17581848733152,-0.234631762695312,9.98382092285156,-0.445321508789062
5.17792414217093,-0.196324536132812,9.96466730957031,-0.47884033203125
5.18002820087318,-0.24899697265625,9.97424411621094,-0.507570751953125
5.18213225957544,-0.239420166015625,9.97424411621094,-0.483628735351562
5.1842363182777,-0.215478149414062,9.99339772949219,-0.430956298828125
5.18633843519393,-0.1915361328125,9.97903251953125,-0.483628735351562
5.18844055211016,-0.181959326171875,9.97903251953125,-0.469263525390625
5.1905426690264,-0.220266552734375,10.0077629394531,-0.4979939453125
5.19264372295435,-0.253785375976562,9.97903251953125,-0.488417138671875
5.1947447768823,-0.201112939453125,10.0029745361328,-0.526724365234375
5.19684583081025,-0.21068974609375,9.95987890625,-0.502782348632812
5.19891574384194,-0.234631762695312,9.95987890625,-0.569819995117188
5.20098565687362,-0.220266552734375,9.97903251953125,-0.526724365234375
5.2030555699053,-0.177170922851562,9.95987890625,-0.474051928710937
5.20516392911754,-0.253785375976562,9.95509050292969,-0.464475122070312
5.20727228832978,-0.239420166015625,9.9215716796875,-0.474051928710937
5.20938064754202,-0.24899697265625,9.94551369628906,-0.545877978515625
5.21148867211885,-0.253785375976562,9.93593688964844,-0.502782348632812
5.21359669669567,-0.201112939453125,9.97424411621094,-0.536301171875
5.21570472127249,-0.258573779296875,9.96466730957031,-0.521935961914062
5.21781266783282,-0.258573779296875,9.95987890625,-0.541089575195312
5.21992061439315,-0.234631762695312,9.95509050292969,-0.469263525390625
5.22202856095348,-0.258573779296875,9.96466730957031,-0.55545478515625
5.22413646774601,-0.225054956054687,9.9981861328125,-0.536301171875
5.22624437453855,-0.196324536132812,9.98382092285156,-0.536301171875
5.22835228133108,-0.220266552734375,9.98382092285156,-0.536301171875
5.23042577091442,-0.244208569335937,9.95030209960937,-0.545877978515625
5.23249926049775,-0.292092602539062,9.98382092285156,-0.565031591796875
5.23457275008108,-0.244208569335937,9.96466730957031,-0.569819995117188
5.23668171411103,-0.2681505859375,9.97424411621094,-0.512359155273437
5.23879067814098,-0.234631762695312,9.96945571289062,-0.550666381835937
5.24089964217092,-0.225054956054687,9.95509050292969,-0.531512768554687
5.24301024433021,-0.21068974609375,9.97424411621094,-0.464475122070312
5.2451208464895,-0.263362182617187,9.98860932617187,-0.531512768554687
5.24723144864879,-0.196324536132812,9.9981861328125,-0.507570751953125
5.24934197496172,-0.220266552734375,10.036493359375,-0.550666381835937
5.25145250127466,-0.239420166015625,10.0125513427734,-0.502782348632812
5.25356302758759,-0.24899697265625,10.0125513427734,-0.47884033203125
5.25567352677379,-0.220266552734375,10.0269165527344,-0.474051928710937
5.25778402595999,-0.196324536132812,10.0029745361328,-0.483628735351562
5.25989452514619,-0.215478149414062,9.97424411621094,-0.507570751953125
5.26197098852509,-0.21068974609375,9.97903251953125,-0.531512768554687
5.264047451904,-0.177170922851562,10.0317049560547,-0.502782348632812
5.2661239152829,-0.258573779296875,9.9981861328125,-0.4979939453125
5.26823466653073,-0.244208569335937,10.0604353759766,-0.450109912109375
5.27034541777856,-0.1915361328125,10.0317049560547,-0.502782348632812
5.27245616902639,-0.244208569335937,10.0221281494141,-0.435744702148437
5.27456746487058,-0.24899697265625,9.9981861328125,-0.474051928710937
5.27667876071476,-0.2681505859375,10.0029745361328,-0.507570751953125
5.27879005655894,-0.24899697265625,9.99339772949219,-0.531512768554687
5.28090488327335,-0.220266552734375,9.97903251953125,-0.493205541992187
5.28301970998777,-0.239420166015625,9.9981861328125,-0.493205541992187
5.28513453670218,-0.181959326171875,9.97424411621094,-0.545877978515625
5.2872511331106,-0.24899697265625,9.96945571289062,-0.531512768554687
5.28936772951902,-0.24899697265625,9.95509050292969,-0.507570751953125
5.29148432592744,-0.263362182617187,9.98382092285156,-0.51714755859375
5.29356606789792,-0.272938989257812,9.95509050292969,-0.493205541992187
5.29564780986841,-0.24899697265625,9.95987890625,-0.512359155273437
5.29772955183889,-0.28730419921875,9.96466730957031,-0.488417138671875
5.29983701944957,-0.282515795898438,9.9981861328125,-0.488417138671875
5.30194448706025,-0.277727392578125,9.95987890625,-0.502782348632812
5.30405195467092,-0.24899697265625,9.95509050292969,-0.569819995117188
5.30615902644827,-0.263362182617187,9.94072529296875,-0.51714755859375
5.30826609822561,-0.244208569335937,9.94551369628906,-0.545877978515625
5.31037317000296,-0.244208569335937,9.97424411621094,-0.569819995117188
5.31247976407848,-0.301669409179687,9.94551369628906,-0.507570751953125
5.314586358154,-0.258573779296875,9.96945571289062,-0.541089575195312
5.31669295222952,-0.2681505859375,9.94551369628906,-0.541089575195312
5.31879957326902,-0.253785375976562,9.97424411621094,-0.541089575195312
5.32090619430851,-0.244208569335937,9.97424411621094,-0.521935961914062
5.32301281534801,-0.263362182617187,9.97903251953125,-0.545877978515625
5.32508514472084,-0.244208569335937,9.95030209960937,-0.531512768554687
5.32715747409367,-0.239420166015625,9.94551369628906,-0.521935961914062
5.3292298034665,-0.181959326171875,9.96945571289062,-0.502782348632812
5.3313356721731,-0.225054956054687,9.96466730957031,-0.464475122070312
5.33344154087969,-0.225054956054687,9.96945571289062,-0.493205541992187
5.33554740958629,-0.234631762695312,9.95030209960937,-0.560243188476563
5.33772816701902,-0.201112939453125,9.96945571289062,-0.507570751953125
5.33990892445174,-0.220266552734375,9.98382092285156,-0.512359155273437
5.34208968188447,-0.220266552734375,9.96945571289062,-0.474051928710937
5.34426983113577,-0.1915361328125,9.95030209960937,-0.507570751953125
5.34644998038707,-0.220266552734375,9.97424411621094,-0.469263525390625
5.34863012963837,-0.205901342773437,9.98860932617187,-0.435744702148437
5.35077833238359,-0.253785375976562,9.95509050292969,-0.488417138671875
5.35292653512882,-0.21068974609375,9.96466730957031,-0.502782348632812
5.35507473787404,-0.229843359375,9.98860932617187,-0.502782348632812
5.3571903083493,-0.225054956054687,9.99339772949219,-0.464475122070312
5.35930587882457,-0.253785375976562,9.94072529296875,-0.450109912109375
5.36142144929983,-0.263362182617187,9.9981861328125,-0.550666381835937
5.36353633954505,-0.272938989257812,9.96945571289062,-0.469263525390625
5.36565122979028,-0.234631762695312,9.96945571289062,-0.450109912109375
5.3677661200355,-0.258573779296875,9.98860932617187,-0.454898315429687
5.36988060332543,-0.282515795898438,9.96945571289062,-0.4979939453125
5.37199508661536,-0.225054956054687,9.95509050292969,-0.488417138671875
5.37410956990529,-0.234631762695312,9.95509050292969,-0.536301171875
5.37622321525035,-0.234631762695312,9.95509050292969,-0.507570751953125
5.3783368605954,-0.225054956054687,9.92636008300781,-0.488417138671875
5.38045050594045,-0.201112939453125,9.98382092285156,-0.47884033203125
5.38474023977292,-0.277727392578125,9.98860932617187,-0.531512768554687
5.38902997360538,-0.205901342773437,9.94551369628906,-0.426167895507812
5.39331970743785,-0.239420166015625,9.98382092285156,-0.493205541992187
5.39543322143525,-0.253785375976562,9.94551369628906,-0.488417138671875
5.39754673543264,-0.2681505859375,9.96466730957031,-0.445321508789062
5.39966024943003,-0.24899697265625,10.0029745361328,-0.507570751953125
5.40177326245087,-0.282515795898438,9.97424411621094,-0.474051928710937
5.4038862754717,-0.258573779296875,9.97903251953125,-0.536301171875
5.40599928849253,-0.21068974609375,10.0077629394531,-0.493205541992187
5.40811211162621,-0.272938989257812,9.96466730957031,-0.550666381835937
